timestamp,acc_x,acc_y,acc_z,gyro_x,gyro_y,gyro_z
4,-0.157826,-0.007872,0.945742,-2.978571,-1.700787,0.396345
8,-0.122681,-0.025689,0.785641,-1.604424,0.390970,0.518491
13,-0.143426,-0.022760,0.853733,-3.207596,-2.464202,0.350540
18,-0.160266,-0.002503,0.978202,-3.131254,-2.586349,0.365808
23,-0.085341,-0.043505,0.762455,-1.696034,-0.341908,0.594833
28,-0.151236,-0.001527,0.959410,-4.276376,-2.235178,0.350540
33,-0.125122,-0.026665,0.832012,-1.634961,1.352873,0.442150
38,-0.133908,-0.021784,0.867888,-3.299205,-2.143568,0.396345
43,-0.138057,-0.016170,0.886680,-2.596863,-2.036690,0.381077
48,-0.120241,-0.024712,0.861054,-2.459449,-1.578641,0.472686
53,-0.127075,-0.017879,0.868620,-2.780083,-0.754153,0.320003
58,-0.141718,-0.019343,0.881311,-3.054913,-0.051811,0.335272
63,-0.126342,-0.027885,0.860078,-2.505254,-0.357177,0.274199
68,-0.130735,-0.013730,0.875698,-2.902230,-1.945080,0.411613
73,-0.122193,-0.018367,0.856173,-2.627400,-1.593909,0.442150
78,-0.126586,-0.013242,0.891562,-2.963303,-1.425958,0.350540
83,-0.127075,-0.020075,0.865936,-2.657937,-0.265567,0.472686
88,-0.128295,-0.018611,0.880579,-2.780083,-0.784689,0.426881
93,-0.129271,-0.016659,0.865692,-2.764815,-1.273275,0.442150
98,-0.134152,-0.023736,0.866912,-2.917498,-1.578641,0.365808
103,-0.131223,-0.009337,0.866424,-3.115986,-1.731324,0.274199
109,-0.128783,-0.005188,0.873501,-2.642668,-0.738884,0.396345
114,-0.126098,-0.017635,0.869352,-2.352571,-0.708348,0.442150
120,-0.124146,-0.023248,0.824934,-3.009108,-2.113031,0.350540
125,-0.145623,-0.008361,0.926706,-2.764815,-1.456494,0.381077
131,-0.120241,-0.031302,0.830303,-2.108278,-0.265567,0.381077
136,-0.138545,-0.012510,0.883996,-3.192327,-1.609177,0.335272
141,-0.136105,-0.009581,0.890585,-2.581595,-1.166397,0.350540
147,-0.122926,-0.015194,0.860078,-2.444180,-1.059519,0.335272
152,-0.125122,-0.024468,0.850316,-2.657937,-1.380153,0.549028
158,-0.129271,-0.014462,0.876430,-2.810620,-1.120592,0.442150
163,-0.128539,-0.019587,0.881799,-2.474717,-0.815226,0.365808
169,-0.130735,-0.016170,0.870573,-2.627400,-1.028982,0.304735
174,-0.129759,-0.012021,0.882287,-2.841157,-1.410689,0.457418
180,-0.126830,-0.017635,0.873013,-2.612132,-1.028982,0.320003
185,-0.130491,-0.018855,0.860810,-2.810620,-0.937372,0.320003
191,-0.134396,-0.013486,0.872525,-2.856425,-1.028982,0.411613
196,-0.130491,-0.020319,0.886436,-2.764815,-1.059519,0.381077
202,-0.129271,-0.018367,0.865447,-2.642668,-1.013714,0.304735
207,-0.128051,-0.010557,0.866180,-3.024376,-1.349616,0.289467
212,-0.127563,-0.022028,0.891073,-2.795351,-0.983177,0.365808
218,-0.128295,-0.017147,0.862275,-2.489985,-0.632006,0.457418
223,-0.123658,-0.019831,0.865447,-2.581595,-0.799957,0.274199
229,-0.136593,-0.010801,0.870573,-2.825888,-1.471763,0.320003
234,-0.133420,-0.015682,0.889609,-2.657937,-1.303811,0.335272
240,-0.125122,-0.015682,0.872769,-2.474717,-0.906835,0.457418
245,-0.127319,-0.018123,0.854953,-2.734278,-1.319080,0.381077
251,-0.131956,-0.013974,0.894734,-2.871693,-1.532836,0.426881
256,-0.129271,-0.016659,0.880091,-2.413644,-0.922104,0.350540
262,-0.125366,-0.018367,0.874478,-2.749546,-1.151128,0.564296
267,-0.129759,-0.017635,0.880579,-2.627400,-0.998445,0.365808
273,-0.134396,-0.017147,0.867888,-2.612132,-0.983177,0.243662
278,-0.123902,-0.018611,0.865447,-2.489985,-1.441226,0.426881
284,-0.131712,-0.016659,0.874966,-2.612132,-1.166397,0.304735
289,-0.128783,-0.011289,0.875698,-2.856425,-1.181665,0.381077
294,-0.132444,-0.013730,0.876918,-2.505254,-0.861031,0.579565
300,-0.128783,-0.017635,0.873989,-2.688474,-1.135860,0.396345
305,-0.135128,-0.016903,0.876918,-2.688474,-1.013714,0.442150
311,-0.135617,-0.017391,0.870329,-2.719010,-1.227470,0.289467
316,-0.135617,-0.035451,0.875454,-2.322034,-0.509860,0.503223
322,-0.138789,-0.006408,0.873989,-3.268669,-2.952788,0.335272
327,-0.132200,-0.017391,0.847875,-2.245693,-1.044250,0.411613
333,-0.132932,0.001158,0.946230,-3.360279,-2.387861,0.258930
338,-0.110967,-0.013242,0.843238,-1.634961,0.436775,0.396345
343,-0.125366,-0.014462,0.879603,-3.390815,-1.807665,0.350540
349,-0.140498,-0.016414,0.859102,-2.581595,-0.616738,0.396345
354,-0.138545,-0.013242,0.891073,-3.054913,-1.487031,0.381077
360,-0.133420,-0.018367,0.843482,-2.520522,-0.601470,0.365808
365,-0.136105,-0.016414,0.906205,-2.871693,-1.090055,0.350540
371,-0.130003,-0.019587,0.887901,-2.673205,-1.410689,0.304735
376,-0.128783,-0.008849,0.872769,-2.581595,-1.288543,0.426881
382,-0.126586,-0.013974,0.862519,-2.795351,-1.303811,0.411613
387,-0.129515,-0.019343,0.860810,-2.825888,-1.593909,0.487955
393,-0.126586,-0.019831,0.883752,-2.703742,-1.044250,0.426881
398,-0.132200,-0.021784,0.880823,-2.810620,-0.708348,0.304735
404,-0.129515,-0.020563,0.861054,-2.581595,-0.601470,0.335272
409,-0.137813,-0.011777,0.881311,-2.963303,-1.364884,0.197857
415,-0.128295,-0.015682,0.854221,-2.703742,-1.166397,0.426881
420,-0.130003,-0.010313,0.883996,-2.719010,-0.922104,0.426881
425,-0.129271,-0.019343,0.879603,-2.795351,-1.395421,0.411613
431,-0.127563,-0.018367,0.861787,-2.581595,-0.708348,0.335272
436,-0.133664,-0.026665,0.867644,-2.764815,-1.059519,0.350540
442,-0.127319,-0.015438,0.869108,-2.673205,-1.395421,0.320003
447,-0.126586,-0.016170,0.875698,-2.520522,-1.120592,0.396345
453,-0.124878,-0.014218,0.868132,-2.825888,-1.487031,0.503223
458,-0.126098,-0.009581,0.882287,-2.825888,-1.135860,0.411613
464,-0.126586,-0.018367,0.858614,-2.551059,-0.967909,0.564296
469,-0.129515,-0.015682,0.873501,-2.886961,-1.303811,0.350540
475,-0.130735,-0.016659,0.879115,-2.764815,-1.090055,0.381077
480,-0.128783,-0.018855,0.869840,-2.551059,-0.861031,0.350540
486,-0.135372,-0.018855,0.878383,-2.871693,-1.395421,0.243662
491,-0.124390,-0.012510,0.882776,-2.688474,-0.815226,0.350540
497,-0.127319,-0.022760,0.869840,-2.566327,-1.212201,0.442150
502,-0.129271,-0.008361,0.869108,-2.642668,-1.242738,0.320003
507,-0.122926,-0.011289,0.887169,-2.810620,-1.212201,0.228394
513,-0.130247,-0.020075,0.875942,-2.596863,-1.013714,0.503223
518,-0.125366,-0.018367,0.861787,-2.932766,-1.273275,0.381077
524,-0.129027,-0.019587,0.862031,-2.719010,-1.181665,0.304735
529,-0.129271,-0.017635,0.863251,-2.673205,-1.074787,0.442150
535,-0.131712,-0.014218,0.892538,-2.917498,-1.074787,0.320003
540,-0.127319,-0.012998,0.873989,-2.764815,-0.830494,0.396345
546,-0.128783,-0.013242,0.877650,-2.749546,-1.105323,0.671174
551,-0.129027,-0.016414,0.880579,-2.749546,-1.456494,0.503223
557,-0.128051,-0.017147,0.855929,-2.398376,-0.922104,0.396345
562,-0.134884,-0.022516,0.890341,-2.780083,-1.303811,0.411613
568,-0.133420,-0.027153,0.859102,-2.657937,-1.288543,0.213125
573,-0.123414,-0.019099,0.862519,-2.886961,-1.181665,0.289467
578,-0.129759,-0.007140,0.903032,-2.871693,-1.090055,0.381077
584,-0.121949,-0.020075,0.848363,-2.703742,-0.815226,0.152052
589,-0.123902,-0.014462,0.866912,-2.948034,-0.647274,0.472686
595,-0.131468,-0.018855,0.891318,-2.795351,-0.799957,0.457418
600,-0.123658,-0.022028,0.875454,-2.810620,-0.754153,0.274199
606,-0.140498,-0.013974,0.906205,-2.856425,-1.227470,0.533760
611,-0.135617,-0.016414,0.868864,-2.566327,-1.227470,0.365808
617,-0.129271,-0.016170,0.852512,-2.719010,-1.700787,0.442150
622,-0.125366,-0.019099,0.832500,-2.566327,-1.196933,0.426881
628,-0.131468,-0.014218,0.890829,-2.703742,-1.670251,0.503223
633,-0.115848,-0.017635,0.857149,-2.612132,-1.044250,0.350540
639,-0.123414,-0.015926,0.865692,-3.299205,-1.196933,0.564296
644,-0.140498,-0.016903,0.954528,-2.306766,0.207750,0.304735
649,-0.135128,-0.011533,0.873501,-4.001547,-2.754300,0.304735
655,-0.129027,-0.038380,0.766848,-1.314326,1.429214,0.396345
660,-0.158802,0.004574,1.025549,-3.986279,-4.052105,0.396345
666,-0.104621,-0.027641,0.759771,-1.741839,0.406238,0.579565
671,-0.148552,-0.000063,1.005048,-2.963303,-1.044250,0.350540
677,-0.124878,-0.020563,0.817612,-2.917498,-1.716055,0.396345
682,-0.136105,-0.012021,0.860078,-2.520522,-0.662543,0.381077
687,-0.132932,-0.021540,0.886680,-2.551059,-1.349616,0.274199
693,-0.133908,-0.015438,0.868132,-3.161791,-1.548104,0.350540
698,-0.132932,-0.020563,0.854709,-2.383107,-0.402982,0.381077
704,-0.138057,-0.007872,0.912306,-2.963303,-1.578641,0.442150
709,-0.120485,-0.015438,0.833476,-2.764815,-0.906835,0.182589
715,-0.130003,-0.017879,0.874966,-2.719010,-1.044250,0.411613
720,-0.126342,-0.018123,0.863739,-2.520522,-1.349616,0.335272
726,-0.137813,-0.026177,0.885460,-2.688474,-1.105323,0.197857
731,-0.131223,-0.018855,0.868132,-2.764815,-1.135860,0.335272
737,-0.133420,-0.020319,0.858126,-2.780083,-0.998445,0.320003
742,-0.130491,-0.017147,0.857638,-2.673205,-1.120592,0.197857
748,-0.124878,-0.019099,0.871305,-2.566327,-1.212201,0.411613
753,-0.128783,-0.020075,0.874478,-2.810620,-1.135860,0.472686
758,-0.137325,-0.015926,0.881067,-2.703742,-1.105323,0.518491
764,-0.124634,-0.013730,0.866912,-2.703742,-1.319080,0.365808
769,-0.126342,-0.013730,0.864715,-2.825888,-0.967909,0.426881
775,-0.134396,-0.010801,0.874966,-2.841157,-0.876299,0.335272
780,-0.134396,-0.018123,0.885216,-2.673205,-0.830494,0.564296
786,-0.133420,-0.018123,0.875454,-2.764815,-1.212201,0.426881
791,-0.131956,-0.014218,0.876186,-2.612132,-1.181665,0.487955
797,-0.132688,-0.013730,0.861299,-2.688474,-1.380153,0.549028
802,-0.131712,-0.012754,0.864227,-2.612132,-1.349616,0.381077
808,-0.130491,-0.025689,0.882776,-2.871693,-0.967909,0.457418
813,-0.128783,-0.020075,0.876674,-2.795351,-1.151128,0.564296
819,-0.127075,-0.015682,0.864471,-2.902230,-1.135860,0.258930
824,-0.130979,-0.010801,0.875698,-2.764815,-1.166397,0.442150
830,-0.130979,-0.010801,0.875454,-2.703742,-1.273275,0.350540
835,-0.122681,-0.012510,0.862275,-2.719010,-0.861031,0.350540
840,-0.130003,-0.017147,0.883752,-2.764815,-0.845762,0.411613
846,-0.123658,-0.016903,0.872037,-2.841157,-0.983177,0.518491
851,-0.124390,-0.017391,0.864471,-2.612132,-1.013714,0.381077
857,-0.138301,-0.019831,0.876186,-2.627400,-1.151128,0.426881
862,-0.125610,-0.022028,0.869840,-2.841157,-1.288543,0.320003
868,-0.128051,-0.018855,0.867400,-2.810620,-1.212201,0.503223
873,-0.129271,-0.021296,0.881067,-2.810620,-1.074787,0.457418
879,-0.128783,-0.018611,0.864227,-2.642668,-1.288543,0.274199
884,-0.131223,-0.013730,0.867888,-2.780083,-1.105323,0.426881
890,-0.128539,-0.013242,0.882776,-2.810620,-0.967909,0.457418
895,-0.135128,-0.016659,0.865692,-2.825888,-1.028982,0.243662
901,-0.129027,-0.017391,0.865936,-2.780083,-0.952640,0.228394
906,-0.133420,-0.014706,0.877650,-2.657937,-1.181665,0.335272
912,-0.124146,-0.018123,0.864959,-2.642668,-1.273275,0.274199
917,-0.125854,-0.016659,0.870817,-2.520522,-1.090055,0.320003
922,-0.129027,-0.017147,0.883508,-2.642668,-1.151128,0.289467
928,-0.127075,-0.014706,0.870573,-2.688474,-1.044250,0.289467
933,-0.126586,-0.022028,0.871305,-2.688474,-1.059519,0.213125
939,-0.127319,-0.017879,0.881311,-2.688474,-1.135860,0.182589
944,-0.130979,-0.015926,0.868620,-2.810620,-1.028982,0.579565
950,-0.132932,-0.012510,0.877406,-2.734278,-1.044250,0.335272
955,-0.130003,-0.017147,0.875942,-2.703742,-1.059519,0.518491
961,-0.127563,-0.019831,0.867644,-2.642668,-1.273275,0.381077
966,-0.126586,-0.019587,0.868620,-2.627400,-1.090055,0.320003
972,-0.134152,-0.020563,0.869108,-2.734278,-1.288543,0.228394
977,-0.134640,-0.018367,0.877894,-2.703742,-1.242738,0.335272
983,-0.128539,-0.019343,0.877406,-2.581595,-1.059519,0.472686
988,-0.128539,-0.016659,0.863251,-2.871693,-1.044250,0.411613
993,-0.127319,-0.011289,0.879847,-2.703742,-1.028982,0.182589
999,-0.128783,-0.020075,0.873013,-2.673205,-1.135860,0.320003
1004,-0.124634,-0.015438,0.867156,-2.841157,-1.028982,0.243662
1010,-0.126098,-0.019099,0.879847,-2.825888,-1.258006,0.411613
1016,-0.127807,-0.022272,0.862763,-2.581595,-0.815226,0.426881
1021,-0.133908,-0.015194,0.875942,-2.825888,-1.242738,0.533760
1027,-0.127319,-0.012998,0.873745,-2.673205,-1.181665,0.549028
1032,-0.133176,-0.020075,0.869108,-2.764815,-1.303811,0.365808
1038,-0.125122,-0.018855,0.868864,-2.551059,-0.998445,0.442150
1043,-0.129515,-0.016903,0.871549,-2.520522,-1.059519,0.274199
1049,-0.130735,-0.020563,0.872281,-2.780083,-1.319080,0.426881
1054,-0.128051,-0.017391,0.867156,-2.749546,-0.967909,0.411613
1060,-0.130979,-0.016414,0.875942,-2.673205,-1.135860,0.396345
1066,-0.126830,-0.015194,0.872769,-2.627400,-1.212201,0.258930
1071,-0.128051,-0.017147,0.873501,-2.841157,-1.227470,0.457418
1077,-0.127807,-0.017635,0.876918,-2.749546,-0.922104,0.213125
1082,-0.129271,-0.019099,0.875454,-2.795351,-1.044250,0.442150
1088,-0.129027,-0.015926,0.865692,-2.703742,-1.090055,0.457418
1093,-0.127563,-0.016659,0.873501,-2.886961,-1.074787,0.258930
1099,-0.129759,-0.013486,0.877162,-2.734278,-1.105323,0.350540
1104,-0.129027,-0.017879,0.873257,-2.749546,-1.105323,0.197857
1110,-0.130491,-0.014462,0.871061,-2.566327,-1.105323,0.365808
1116,-0.129271,-0.016170,0.866180,-2.749546,-1.242738,0.304735
1121,-0.126342,-0.017879,0.871061,-2.780083,-1.196933,0.335272
1127,-0.128051,-0.017391,0.877162,-2.856425,-1.319080,0.289467
1132,-0.129271,-0.015438,0.871305,-2.749546,-1.090055,0.426881
1138,-0.130491,-0.014218,0.876186,-2.749546,-1.273275,0.350540
1143,-0.126098,-0.010069,0.874722,-2.657937,-1.151128,0.442150
1149,-0.128051,-0.020563,0.877162,-2.673205,-1.059519,0.320003
1154,-0.128539,-0.017147,0.870573,-2.566327,-0.983177,0.350540
1160,-0.127319,-0.021784,0.868132,-2.703742,-1.044250,0.320003
1165,-0.124390,-0.013974,0.872525,-2.719010,-1.166397,0.457418
1171,-0.129759,-0.023004,0.875942,-2.841157,-1.135860,0.365808
1177,-0.128051,-0.016903,0.872037,-2.673205,-1.166397,0.365808
1182,-0.132444,-0.015438,0.864959,-2.780083,-1.135860,0.304735
1188,-0.131712,-0.018855,0.884484,-2.734278,-1.212201,0.243662
1193,-0.125610,-0.015926,0.871549,-2.719010,-1.196933,0.320003
1199,-0.130003,-0.020563,0.875942,-2.719010,-1.166397,0.381077
1204,-0.127319,-0.016659,0.873501,-2.795351,-1.227470,0.197857
1210,-0.126098,-0.014462,0.871793,-2.719010,-1.135860,0.396345
1215,-0.125122,-0.017879,0.870329,-2.688474,-1.074787,0.503223
1221,-0.129271,-0.015194,0.866912,-2.780083,-0.861031,0.350540
1227,-0.130491,-0.016414,0.869352,-2.703742,-0.998445,0.487955
1232,-0.129271,-0.022272,0.870573,-2.856425,-1.028982,0.320003
1238,-0.123170,-0.014950,0.872037,-2.657937,-1.242738,0.518491
1243,-0.136105,-0.013730,0.869840,-2.871693,-1.074787,0.258930
1249,-0.129515,-0.020075,0.876186,-2.734278,-1.181665,0.381077
1254,-0.133664,-0.014950,0.872281,-2.596863,-1.258006,0.350540
1260,-0.129027,-0.018367,0.866180,-2.780083,-1.013714,0.411613
1265,-0.131712,-0.018123,0.873989,-2.657937,-1.059519,0.304735
1271,-0.125366,-0.019099,0.876674,-2.871693,-1.258006,0.350540
1276,-0.136349,-0.014218,0.868620,-2.734278,-0.922104,0.213125
1282,-0.128783,-0.009581,0.874233,-2.703742,-1.105323,0.442150
1288,-0.133176,-0.020807,0.863251,-2.657937,-1.059519,0.335272
1293,-0.129759,-0.013486,0.872769,-2.825888,-1.349616,0.442150
1299,-0.123170,-0.019099,0.873745,-2.764815,-1.166397,0.518491
1304,-0.132444,-0.013486,0.864227,-2.657937,-1.166397,0.258930
1310,-0.132444,-0.018367,0.865936,-2.780083,-1.288543,0.335272
1315,-0.127563,-0.019587,0.872281,-2.734278,-1.349616,0.411613
1321,-0.126830,-0.016414,0.871793,-2.810620,-1.074787,0.487955
1326,-0.123658,-0.016170,0.874722,-2.886961,-1.166397,0.350540
1332,-0.130003,-0.023980,0.866424,-2.841157,-1.395421,0.320003
1338,-0.126098,-0.019099,0.870817,-2.642668,-1.135860,0.274199
1343,-0.135128,-0.009825,0.881311,-2.551059,-1.090055,0.457418
1349,-0.129027,-0.024468,0.863983,-2.535790,-1.135860,0.335272
1354,-0.123902,-0.018611,0.882043,-2.780083,-1.028982,0.426881
1360,-0.130247,-0.016903,0.872037,-2.734278,-1.059519,0.472686
1365,-0.134152,-0.013730,0.871793,-2.795351,-1.288543,0.304735
1371,-0.132200,-0.015682,0.873013,-2.627400,-1.227470,0.381077
1376,-0.126098,-0.012754,0.871061,-2.703742,-1.349616,0.442150
1382,-0.127563,-0.016170,0.877650,-2.612132,-1.120592,0.335272
1388,-0.128783,-0.019831,0.873013,-2.703742,-1.105323,0.549028
1393,-0.132932,-0.016170,0.873501,-2.780083,-0.922104,0.381077
1399,-0.133420,-0.015926,0.868864,-2.627400,-1.227470,0.381077
1404,-0.130247,-0.015438,0.878871,-2.657937,-1.196933,0.487955
1410,-0.129027,-0.016414,0.873745,-2.810620,-0.998445,0.304735
1415,-0.138789,-0.017879,0.870817,-2.688474,-0.967909,0.320003
1421,-0.127563,-0.016903,0.874233,-2.749546,-1.242738,0.396345
1426,-0.128051,-0.014706,0.874966,-2.657937,-1.181665,0.335272
1432,-0.126098,-0.021296,0.867400,-2.688474,-1.196933,0.487955
1438,-0.130491,-0.016903,0.881555,-2.688474,-0.983177,0.365808
1443,-0.133420,-0.018123,0.870085,-2.719010,-1.105323,0.304735
1449,-0.122926,-0.016414,0.874722,-2.825888,-0.967909,0.472686
1454,-0.132932,-0.021296,0.871305,-2.703742,-1.212201,0.335272
1460,-0.128539,-0.022272,0.864959,-2.673205,-1.028982,0.320003
1465,-0.119753,-0.013730,0.870329,-2.596863,-1.135860,0.274199
1471,-0.128783,-0.018611,0.874233,-2.642668,-1.242738,0.472686
1476,-0.130735,-0.015926,0.859590,-2.749546,-1.212201,0.594833
1482,-0.130735,-0.019343,0.885704,-2.474717,-1.013714,0.152052
1487,-0.134152,-0.019831,0.885216,-2.902230,-1.578641,0.472686
1493,-0.128295,-0.014950,0.860810,-2.459449,-0.876299,0.320003
1499,-0.129027,-0.016903,0.893270,-2.948034,-1.395421,0.320003
1504,-0.127319,-0.019343,0.871061,-2.596863,-1.059519,0.426881
1510,-0.125122,-0.014218,0.858614,-2.734278,-1.196933,0.274199
1515,-0.129027,-0.018611,0.894734,-2.917498,-1.227470,0.564296
1521,-0.132932,-0.018123,0.868620,-2.657937,-1.120592,0.274199
1526,-0.129759,-0.009337,0.878138,-2.795351,-1.258006,0.152052
1532,-0.135372,-0.022028,0.856661,-2.505254,-0.906835,0.411613
1537,-0.130979,-0.015682,0.885948,-2.581595,-1.502299,0.289467
1543,-0.118288,-0.015438,0.859346,-2.612132,-1.013714,0.396345
1549,-0.129759,-0.017147,0.876186,-2.948034,-0.906835,0.381077
1554,-0.126098,-0.019587,0.880091,-2.856425,-0.906835,0.365808
1560,-0.133176,-0.018367,0.878871,-2.871693,-1.074787,0.442150
1565,-0.130003,-0.021296,0.868864,-2.657937,-1.013714,0.274199
1571,-0.130247,-0.013974,0.876186,-2.627400,-1.181665,0.304735
1576,-0.118044,-0.013974,0.875210,-2.764815,-1.425958,0.243662
1582,-0.129759,-0.013486,0.879603,-2.627400,-1.120592,0.335272
1587,-0.130247,-0.016414,0.873013,-2.673205,-1.258006,0.365808
1593,-0.126830,-0.018855,0.867156,-2.856425,-1.135860,0.320003
1598,-0.130735,-0.014706,0.876918,-2.627400,-1.334348,0.457418
1604,-0.131223,-0.018123,0.875210,-2.703742,-1.090055,0.335272
1610,-0.134640,-0.013486,0.874966,-2.780083,-1.135860,0.457418
1615,-0.132444,-0.021540,0.870573,-2.688474,-1.059519,0.564296
1621,-0.121217,-0.013242,0.872525,-2.596863,-1.288543,0.167320
1626,-0.128051,-0.017635,0.871061,-2.810620,-1.319080,0.381077
1632,-0.128051,-0.012510,0.883020,-2.642668,-1.135860,0.442150
1637,-0.133420,-0.017879,0.871549,-2.780083,-1.028982,0.381077
1643,-0.120241,-0.015926,0.863495,-2.719010,-1.242738,0.320003
1648,-0.131712,-0.014462,0.870817,-2.780083,-1.227470,0.564296
1654,-0.130491,-0.015438,0.873989,-2.749546,-1.258006,0.411613
1660,-0.130979,-0.014706,0.867156,-2.719010,-1.105323,0.365808
1665,-0.124146,-0.013974,0.873257,-2.703742,-1.196933,0.335272
1671,-0.130247,-0.017391,0.879847,-2.734278,-1.090055,0.396345
1676,-0.126342,-0.018855,0.869596,-2.703742,-0.922104,0.472686
1682,-0.131468,-0.020807,0.865936,-2.886961,-0.891567,0.167320
1687,-0.131223,-0.018855,0.877650,-2.780083,-0.922104,0.258930
1693,-0.132444,-0.014950,0.873989,-2.825888,-1.105323,0.182589
1698,-0.130979,-0.012998,0.866424,-2.734278,-1.273275,0.442150
1704,-0.129271,-0.016170,0.866180,-2.749546,-1.196933,0.274199
1710,-0.129515,-0.015194,0.863495,-2.688474,-1.258006,0.533760
1715,-0.126098,-0.016659,0.874722,-2.795351,-1.288543,0.549028
1721,-0.128539,-0.014462,0.886192,-2.734278,-0.967909,0.533760
1726,-0.128783,-0.021052,0.862763,-2.780083,-0.983177,0.335272
1732,-0.129515,-0.017879,0.873745,-2.795351,-1.074787,0.457418
1737,-0.131468,-0.013242,0.866912,-2.703742,-1.181665,0.365808
1743,-0.129759,-0.015682,0.878871,-2.764815,-1.242738,0.365808
1748,-0.126342,-0.021296,0.873745,-2.795351,-1.105323,0.320003
1754,-0.130003,-0.014706,0.874233,-2.703742,-0.876299,0.549028
1760,-0.133420,-0.021540,0.866668,-2.886961,-1.090055,0.350540
1765,-0.128051,-0.021052,0.868620,-2.673205,-0.998445,0.564296
1771,-0.125854,-0.017391,0.860810,-2.719010,-1.166397,0.518491
1776,-0.129759,-0.014706,0.874966,-2.688474,-1.395421,0.381077
1782,-0.130735,-0.021296,0.871549,-2.719010,-1.258006,0.396345
1787,-0.119997,-0.017635,0.868620,-2.627400,-1.303811,0.350540
1793,-0.127563,-0.012021,0.874233,-2.749546,-1.151128,0.396345
1798,-0.133664,-0.017147,0.869352,-2.841157,-0.998445,0.289467
1804,-0.128295,-0.020319,0.874478,-2.825888,-0.998445,0.350540
1809,-0.128539,-0.012998,0.870329,-2.581595,-1.059519,0.365808
1815,-0.130003,-0.022028,0.872281,-2.642668,-1.151128,0.472686
1821,-0.126098,-0.019831,0.875698,-2.764815,-1.227470,0.381077
1826,-0.122926,-0.018367,0.872037,-2.749546,-1.120592,0.442150
1832,-0.126830,-0.019587,0.875454,-2.612132,-1.196933,0.167320
1837,-0.135617,-0.015926,0.882776,-2.612132,-1.212201,0.274199
1843,-0.131468,-0.012021,0.877650,-2.688474,-1.196933,0.503223
1848,-0.129515,-0.013242,0.868132,-2.764815,-1.212201,0.396345
1854,-0.127319,-0.015682,0.860566,-2.657937,-1.074787,0.472686
1860,-0.132200,-0.019831,0.880823,-2.749546,-1.166397,0.518491
1865,-0.132444,-0.012510,0.861054,-2.719010,-1.196933,0.320003
1871,-0.130247,-0.020563,0.865936,-2.703742,-1.090055,0.258930
1876,-0.131712,-0.023980,0.880579,-2.581595,-1.151128,0.396345
1882,-0.132444,-0.021540,0.873257,-2.734278,-0.998445,0.640638
1887,-0.126830,-0.018123,0.875454,-2.795351,-1.258006,0.365808
1893,-0.129271,-0.018611,0.875942,-2.932766,-1.120592,0.320003
1898,-0.130979,-0.017147,0.874966,-2.657937,-1.166397,0.304735
1904,-0.124390,-0.022516,0.868620,-2.703742,-1.258006,0.564296
1909,-0.128783,-0.016414,0.876430,-2.749546,-1.028982,0.274199
1915,-0.128051,-0.017879,0.873013,-2.719010,-1.151128,0.335272
1921,-0.132688,-0.016414,0.871305,-2.535790,-1.044250,0.533760
1926,-0.127319,-0.019099,0.873501,-2.780083,-1.090055,0.350540
1932,-0.130491,-0.015682,0.863251,-2.764815,-0.998445,0.381077
1937,-0.133908,-0.013486,0.874478,-2.780083,-1.181665,0.228394
1943,-0.126098,-0.021784,0.868132,-2.657937,-1.181665,0.365808
1948,-0.130491,-0.022760,0.878871,-2.734278,-0.998445,0.243662
1954,-0.127075,-0.014218,0.873745,-2.780083,-1.258006,0.533760
1959,-0.126342,-0.019343,0.867400,-2.764815,-0.937372,0.350540
1965,-0.131956,-0.025201,0.869108,-2.749546,-1.044250,0.503223
1970,-0.125366,-0.013730,0.873989,-2.719010,-0.983177,0.411613
1976,-0.132444,-0.016414,0.868864,-2.902230,-1.151128,0.320003
1982,-0.129515,-0.010069,0.878383,-2.673205,-1.181665,0.442150
1987,-0.131956,-0.016170,0.872769,-2.825888,-1.181665,0.426881
1993,-0.125122,-0.018611,0.870817,-2.749546,-0.937372,0.320003
1998,-0.131712,-0.018855,0.873989,-2.627400,-1.120592,0.350540
2004,-0.133176,-0.017147,0.870085,-2.795351,-1.303811,0.289467
2009,-0.126342,-0.012021,0.873501,-2.764815,-1.135860,0.579565
2015,-0.129515,-0.017879,0.870329,-2.734278,-0.983177,0.503223
2020,-0.130735,-0.013486,0.879359,-2.795351,-1.105323,0.411613
2026,-0.128539,-0.021540,0.868620,-2.642668,-0.906835,0.457418
2032,-0.127319,-0.020075,0.869840,-2.703742,-1.166397,0.335272
2037,-0.136105,-0.013486,0.871793,-2.688474,-1.135860,0.503223
2043,-0.129271,-0.017391,0.875942,-2.825888,-0.952640,0.258930
2048,-0.128051,-0.018611,0.874722,-2.795351,-1.044250,0.274199
2054,-0.125122,-0.021052,0.878627,-2.780083,-0.983177,0.442150
2059,-0.125854,-0.018123,0.868620,-2.734278,-1.044250,0.274199
2065,-0.130491,-0.018855,0.873013,-2.871693,-1.273275,0.426881
2070,-0.128295,-0.016659,0.871061,-2.825888,-1.334348,0.426881
2076,-0.130735,-0.014462,0.867644,-2.886961,-1.151128,0.304735
2082,-0.127563,-0.008849,0.866912,-2.734278,-1.227470,0.350540
2087,-0.128051,-0.014218,0.877894,-2.734278,-0.983177,0.549028
2093,-0.127807,-0.018611,0.879603,-2.719010,-1.105323,0.274199
2098,-0.130491,-0.017635,0.874478,-2.764815,-1.166397,0.304735
2104,-0.128539,-0.022760,0.875454,-2.673205,-1.181665,0.350540
2109,-0.132688,-0.015926,0.875454,-2.825888,-0.983177,0.365808
2115,-0.124390,-0.015438,0.875210,-2.703742,-1.181665,0.304735
2120,-0.127807,-0.012021,0.870573,-2.780083,-1.120592,0.197857
2126,-0.125366,-0.017391,0.868376,-2.734278,-1.120592,0.426881
2131,-0.122926,-0.019343,0.873013,-2.841157,-1.120592,0.442150
2137,-0.128783,-0.016903,0.873745,-2.703742,-1.273275,0.426881
2143,-0.129271,-0.017147,0.870085,-2.673205,-1.166397,0.426881
2148,-0.130979,-0.019587,0.860078,-2.642668,-1.105323,0.442150
2154,-0.128051,-0.019831,0.869108,-2.703742,-1.105323,0.274199
2159,-0.135617,-0.014950,0.871305,-2.886961,-1.074787,0.182589
2165,-0.130247,-0.015926,0.874966,-2.764815,-1.090055,0.442150
2170,-0.128783,-0.017879,0.866912,-2.581595,-1.028982,0.396345
2176,-0.128783,-0.017879,0.869352,-2.780083,-0.967909,0.457418
2181,-0.129515,-0.016903,0.858614,-2.810620,-1.196933,0.411613
2187,-0.128051,-0.012754,0.872769,-2.810620,-1.090055,0.365808
2193,-0.131712,-0.020563,0.885216,-2.627400,-1.181665,0.579565
2198,-0.124634,-0.015682,0.869108,-2.627400,-1.212201,0.442150
2204,-0.127563,-0.017391,0.867644,-2.719010,-0.922104,0.442150
2209,-0.136837,-0.014950,0.871061,-2.734278,-1.181665,0.442150
2215,-0.129271,-0.019343,0.879847,-2.688474,-1.074787,0.289467
2220,-0.125854,-0.015926,0.879115,-2.673205,-0.891567,0.243662
2226,-0.128783,-0.011289,0.859346,-2.749546,-1.059519,0.426881
2231,-0.134152,-0.020075,0.864715,-2.703742,-1.090055,0.350540
2237,-0.123170,-0.019587,0.864227,-2.780083,-1.273275,0.472686
2243,-0.126098,-0.016659,0.873257,-2.948034,-1.242738,0.381077
2248,-0.120485,-0.012021,0.872037,-2.627400,-1.181665,0.549028
2254,-0.123658,-0.020807,0.873989,-2.749546,-1.135860,0.365808
2259,-0.129515,-0.020319,0.861787,-2.780083,-1.074787,0.442150
2265,-0.136837,-0.018855,0.868620,-2.856425,-1.013714,0.411613
2270,-0.128295,-0.011533,0.875942,-2.734278,-0.998445,0.426881
2276,-0.133420,-0.016903,0.865692,-2.657937,-1.013714,0.381077
2281,-0.125610,-0.014218,0.877162,-2.657937,-1.151128,0.365808
2287,-0.130491,-0.014950,0.872281,-2.734278,-0.998445,0.381077
2292,-0.125610,-0.015682,0.870085,-2.612132,-1.105323,0.396345
2298,-0.125854,-0.012021,0.872769,-2.749546,-1.303811,0.365808
2304,-0.129759,-0.019831,0.868620,-2.719010,-1.120592,0.274199
2309,-0.128295,-0.015438,0.879847,-2.642668,-1.212201,0.365808
2315,-0.126098,-0.017879,0.873989,-2.703742,-1.074787,0.289467
2320,-0.135617,-0.016170,0.880091,-2.673205,-1.028982,0.533760
2326,-0.126586,-0.014462,0.868376,-2.596863,-1.090055,0.365808
2331,-0.133908,-0.022760,0.870573,-2.810620,-1.135860,0.426881
2337,-0.121461,-0.009581,0.867156,-2.734278,-1.135860,0.365808
2342,-0.126830,-0.020563,0.872037,-2.703742,-1.166397,0.411613
2348,-0.127319,-0.012998,0.874478,-2.871693,-1.074787,0.396345
2354,-0.128295,-0.012021,0.867644,-2.810620,-1.105323,0.503223
2359,-0.125122,-0.013242,0.873989,-2.642668,-1.074787,0.426881
2365,-0.125854,-0.017635,0.874233,-2.749546,-1.135860,0.350540
2370,-0.127563,-0.015926,0.875454,-2.764815,-1.258006,0.411613
2376,-0.130979,-0.018123,0.865692,-2.734278,-0.983177,0.365808
2381,-0.123170,-0.018123,0.873501,-2.627400,-1.227470,0.335272
2387,-0.130491,-0.012265,0.875454,-2.734278,-1.212201,0.197857
2392,-0.130491,-0.018611,0.878627,-2.627400,-1.181665,0.487955
2398,-0.128295,-0.013730,0.876918,-2.657937,-1.166397,0.518491
2404,-0.131712,-0.015438,0.876918,-2.780083,-0.998445,0.426881
2409,-0.130735,-0.014706,0.869840,-2.719010,-1.059519,0.381077
2415,-0.129759,-0.019099,0.879115,-2.703742,-1.227470,0.457418
2420,-0.128051,-0.015438,0.870085,-2.719010,-1.028982,0.457418
2426,-0.128783,-0.012754,0.871549,-2.688474,-0.845762,0.442150
2431,-0.126098,-0.019099,0.873501,-2.612132,-1.258006,0.213125
2437,-0.128295,-0.018123,0.869108,-2.734278,-1.044250,0.182589
2442,-0.128051,-0.016659,0.866180,-2.749546,-1.166397,0.411613
2448,-0.128783,-0.017391,0.870085,-2.749546,-1.135860,0.350540
2453,-0.130491,-0.015438,0.875454,-2.719010,-1.074787,0.381077
2459,-0.129271,-0.019099,0.871549,-2.719010,-1.044250,0.365808
2465,-0.132200,-0.018611,0.878383,-2.688474,-1.059519,0.381077
2470,-0.133420,-0.021784,0.867888,-2.673205,-0.967909,0.411613
2476,-0.130491,-0.016414,0.868620,-2.627400,-1.120592,0.274199
2481,-0.128295,-0.015438,0.880579,-2.734278,-1.013714,0.426881
2487,-0.124878,-0.016659,0.875454,-2.703742,-0.952640,0.411613
2492,-0.126586,-0.023004,0.866668,-2.657937,-1.028982,0.274199
2498,-0.131956,-0.016903,0.872281,-2.795351,-1.166397,0.350540
2503,-0.126586,-0.015194,0.873745,-2.688474,-1.059519,0.335272
2509,-0.126586,-0.012998,0.873013,-2.764815,-1.212201,0.503223
2515,-0.130003,-0.021540,0.876430,-2.703742,-1.120592,0.350540
2520,-0.128295,-0.018611,0.877406,-2.673205,-1.181665,0.365808
2526,-0.122437,-0.014950,0.869596,-2.703742,-1.151128,0.167320
2531,-0.128783,-0.015194,0.866180,-2.703742,-1.288543,0.518491
2537,-0.128051,-0.018855,0.872281,-2.856425,-1.028982,0.396345
2542,-0.126342,-0.010313,0.879359,-2.764815,-1.151128,0.304735
2548,-0.128539,-0.019831,0.869840,-2.764815,-1.166397,0.289467
2553,-0.121461,-0.015438,0.870817,-2.596863,-1.303811,0.243662
2559,-0.128295,-0.019099,0.882532,-2.764815,-0.967909,0.274199
2565,-0.126342,-0.018123,0.878383,-2.520522,-1.212201,0.274199
2570,-0.124878,-0.017879,0.863983,-2.673205,-1.044250,0.274199
2576,-0.128539,-0.014950,0.878383,-2.825888,-1.227470,0.549028
2581,-0.130979,-0.021052,0.869596,-2.642668,-1.028982,0.426881
2587,-0.130003,-0.013730,0.860078,-2.734278,-1.105323,0.594833
2592,-0.127563,-0.021540,0.868132,-2.810620,-1.181665,0.472686
2598,-0.127807,-0.014218,0.873989,-2.673205,-1.181665,0.457418
2603,-0.127807,-0.016414,0.869352,-2.917498,-1.120592,0.289467
2609,-0.121461,-0.018367,0.877894,-2.719010,-1.258006,0.533760
2615,-0.126098,-0.012021,0.871061,-2.810620,-1.120592,0.365808
2620,-0.125854,-0.015438,0.882532,-2.719010,-1.212201,0.258930
2626,-0.129515,-0.015438,0.878627,-2.780083,-1.044250,0.426881
2631,-0.126098,-0.017879,0.873013,-2.627400,-1.090055,0.579565
2637,-0.128295,-0.020563,0.872525,-2.734278,-1.166397,0.442150
2642,-0.125610,-0.018367,0.869596,-2.657937,-1.166397,0.396345
2648,-0.130003,-0.018855,0.865447,-2.673205,-1.105323,0.274199
2653,-0.129515,-0.013730,0.867644,-2.795351,-1.059519,0.289467
2659,-0.128539,-0.017147,0.879603,-2.657937,-0.983177,0.381077
2664,-0.127563,-0.011289,0.871793,-2.688474,-1.166397,0.579565
2670,-0.129271,-0.018367,0.871793,-2.734278,-1.303811,0.503223
2676,-0.132200,-0.011777,0.873013,-2.871693,-1.044250,0.335272
2681,-0.127319,-0.013486,0.865203,-2.719010,-1.090055,0.487955
2687,-0.133176,-0.018855,0.871061,-2.642668,-1.212201,0.197857
2692,-0.127563,-0.014706,0.869596,-2.734278,-1.135860,0.335272
2698,-0.128783,-0.014706,0.879603,-2.642668,-1.212201,0.472686
2703,-0.122437,-0.009337,0.881067,-2.780083,-1.196933,0.365808
2709,-0.130735,-0.013486,0.863495,-2.764815,-1.181665,0.365808
2714,-0.124634,-0.016170,0.865692,-2.825888,-1.151128,0.701711
2720,-0.131956,-0.017147,0.880823,-2.764815,-0.998445,0.350540
2726,-0.131223,-0.012510,0.867400,-2.825888,-1.273275,0.167320
2731,-0.128783,-0.021296,0.867644,-2.581595,-1.242738,0.503223
2737,-0.127563,-0.019587,0.878871,-2.825888,-1.074787,0.396345
2742,-0.129027,-0.021052,0.865203,-2.719010,-1.120592,0.365808
2748,-0.135861,-0.013974,0.873257,-2.596863,-1.181665,0.213125
2753,-0.129271,-0.014218,0.875942,-2.810620,-1.105323,0.533760
2759,-0.128783,-0.012510,0.864227,-2.780083,-1.059519,0.564296
2764,-0.126830,-0.023980,0.866668,-2.734278,-1.135860,0.426881
2770,-0.126830,-0.018123,0.871061,-2.627400,-1.242738,0.289467
2776,-0.130979,-0.009825,0.869352,-2.719010,-1.044250,0.457418
2781,-0.125854,-0.013486,0.866180,-2.780083,-0.983177,0.350540
2787,-0.123170,-0.014462,0.872281,-2.703742,-1.028982,0.411613
2792,-0.127075,-0.016170,0.872769,-2.703742,-1.242738,0.426881
2798,-0.124878,-0.012021,0.870329,-2.719010,-1.196933,0.365808
2803,-0.130979,-0.016659,0.872769,-2.657937,-0.922104,0.381077
2809,-0.133420,-0.019831,0.875942,-2.810620,-1.059519,0.320003
2814,-0.131956,-0.017635,0.871549,-2.749546,-0.983177,0.426881
2820,-0.129027,-0.020807,0.869840,-2.810620,-1.380153,0.258930
2825,-0.130491,-0.016170,0.876674,-2.688474,-1.120592,0.411613
2831,-0.129759,-0.015682,0.865692,-2.627400,-1.135860,0.472686
2837,-0.132932,-0.010069,0.871793,-2.841157,-1.105323,0.304735
2842,-0.124146,-0.022760,0.867644,-2.719010,-1.090055,0.304735
2848,-0.130979,-0.020563,0.881311,-2.734278,-1.212201,0.472686
2853,-0.128539,-0.013242,0.878138,-2.764815,-1.059519,0.320003
2859,-0.126342,-0.017391,0.875942,-2.825888,-1.120592,0.274199
2864,-0.129271,-0.018123,0.879603,-2.841157,-1.090055,0.411613
2870,-0.129515,-0.017635,0.870085,-2.810620,-1.059519,0.335272
2875,-0.129271,-0.023736,0.869352,-2.703742,-1.013714,0.503223
2881,-0.126098,-0.010069,0.871305,-2.825888,-1.059519,0.426881
2887,-0.126586,-0.012265,0.871793,-2.612132,-1.105323,0.365808
2892,-0.129759,-0.016414,0.872525,-2.673205,-1.258006,0.411613
2898,-0.129515,-0.015438,0.872525,-2.795351,-1.044250,0.518491
2903,-0.129027,-0.017635,0.869108,-2.627400,-1.166397,0.320003
2909,-0.127075,-0.012510,0.873257,-2.612132,-1.227470,0.442150
2914,-0.132200,-0.016659,0.878138,-2.703742,-1.212201,0.258930
2920,-0.125610,-0.014462,0.868376,-2.719010,-1.120592,0.365808
2925,-0.125122,-0.011045,0.872525,-2.719010,-1.059519,0.320003
2931,-0.133664,-0.017147,0.872525,-2.764815,-1.013714,0.350540
2937,-0.127075,-0.020319,0.875942,-2.764815,-1.135860,0.442150
2942,-0.126342,-0.014218,0.872037,-2.810620,-1.303811,0.411613
2948,-0.130247,-0.016170,0.875454,-2.703742,-1.090055,0.258930
2953,-0.128295,-0.014218,0.864471,-2.749546,-1.181665,0.549028
2959,-0.132200,-0.015926,0.875210,-2.795351,-1.090055,0.396345
2964,-0.128783,-0.012021,0.873013,-2.657937,-0.998445,0.457418
2970,-0.132688,-0.017879,0.875698,-2.688474,-1.151128,0.304735
2975,-0.129271,-0.018611,0.871061,-2.688474,-1.090055,0.350540
2981,-0.123658,-0.015926,0.874478,-2.688474,-1.090055,0.411613
2986,-0.125610,-0.023736,0.873989,-2.734278,-1.120592,0.289467
2992,-0.125854,-0.009337,0.872525,-2.856425,-1.074787,0.518491
2998,-0.127563,-0.016659,0.873989,-2.780083,-1.090055,0.472686
3003,-0.132932,-0.017879,0.876674,-2.764815,-1.090055,0.472686
3009,-0.129271,-0.022760,0.866424,-2.642668,-1.044250,0.320003
3014,-0.131468,-0.020319,0.881067,-2.627400,-1.120592,0.533760
3020,-0.132444,-0.015926,0.880579,-2.596863,-1.273275,0.320003
3025,-0.132444,-0.012021,0.867888,-2.856425,-0.922104,0.365808
3031,-0.128783,-0.023004,0.871061,-2.673205,-1.059519,0.457418
3036,-0.127319,-0.017879,0.870573,-2.673205,-1.044250,0.274199
3042,-0.134396,-0.012265,0.877894,-2.749546,-1.151128,0.487955
3048,-0.125854,-0.011777,0.869352,-2.688474,-1.212201,0.426881
3053,-0.129759,-0.016903,0.869596,-2.673205,-1.196933,0.335272
3059,-0.131223,-0.010069,0.869840,-2.841157,-1.090055,0.350540
3064,-0.130979,-0.019099,0.873989,-2.627400,-1.212201,0.243662
3070,-0.123170,-0.015926,0.870329,-2.825888,-1.090055,0.381077
3075,-0.128783,-0.017147,0.873989,-2.780083,-1.166397,0.274199
3081,-0.132688,-0.014462,0.877406,-2.627400,-1.151128,0.274199
3086,-0.123658,-0.022028,0.867400,-2.642668,-1.044250,0.457418
3092,-0.128295,-0.007628,0.871549,-2.749546,-1.105323,0.197857
3098,-0.131712,-0.017879,0.867888,-2.917498,-1.135860,0.350540
3103,-0.127563,-0.017879,0.871305,-2.810620,-1.196933,0.289467
3109,-0.130491,-0.011533,0.873013,-2.780083,-1.090055,0.121516
3114,-0.128783,-0.016170,0.865936,-2.810620,-1.258006,0.457418
3120,-0.126586,-0.015926,0.875454,-2.764815,-1.090055,0.335272
3125,-0.128295,-0.015926,0.869352,-2.719010,-1.059519,0.320003
3131,-0.129027,-0.021052,0.870573,-2.780083,-1.028982,0.579565
3136,-0.131712,-0.018367,0.879115,-2.673205,-1.151128,0.350540
3142,-0.131223,-0.015926,0.879603,-2.825888,-1.151128,0.289467
3147,-0.127075,-0.020563,0.878871,-2.719010,-1.059519,0.274199
3153,-0.128051,-0.017147,0.874478,-2.719010,-1.059519,0.472686
3159,-0.132688,-0.016170,0.884972,-2.841157,-1.059519,0.442150
3164,-0.129027,-0.018367,0.875942,-2.734278,-0.983177,0.365808
3170,-0.127563,-0.021540,0.865447,-2.673205,-1.013714,0.594833
3175,-0.127563,-0.014462,0.864227,-2.886961,-1.135860,0.289467
3181,-0.133176,-0.018367,0.879603,-2.856425,-1.074787,0.365808
3186,-0.131223,-0.020807,0.874233,-2.627400,-1.135860,0.472686
3192,-0.130735,-0.015926,0.874966,-2.871693,-1.181665,0.274199
3197,-0.125366,-0.017879,0.869840,-2.688474,-1.105323,0.487955
3203,-0.129515,-0.020319,0.875454,-2.841157,-1.044250,0.411613
3209,-0.126830,-0.021296,0.876918,-2.780083,-1.242738,0.457418
3214,-0.126830,-0.016659,0.865692,-2.749546,-0.967909,0.396345
3220,-0.125366,-0.022760,0.881311,-2.688474,-1.196933,0.426881
3225,-0.134884,-0.016659,0.874478,-2.902230,-1.028982,0.365808
3231,-0.136837,-0.021296,0.867156,-2.719010,-1.090055,0.411613
3236,-0.129271,-0.015438,0.870085,-2.856425,-1.044250,0.365808
3242,-0.128051,-0.020075,0.874722,-2.841157,-0.998445,0.411613
3247,-0.127807,-0.017147,0.876918,-2.734278,-1.090055,0.381077
3253,-0.128539,-0.021052,0.864959,-2.535790,-1.135860,0.396345
3259,-0.130979,-0.013486,0.869108,-2.627400,-0.998445,0.487955
3264,-0.127563,-0.016659,0.872037,-2.627400,-1.090055,0.274199
3270,-0.126098,-0.014218,0.878871,-2.825888,-1.028982,0.564296
3275,-0.129759,-0.015926,0.866668,-2.856425,-1.105323,0.258930
3281,-0.129271,-0.017635,0.871793,-2.810620,-1.090055,0.365808
3286,-0.135128,-0.017635,0.867156,-2.719010,-1.074787,0.457418
3292,-0.123902,-0.018123,0.860810,-2.612132,-1.074787,0.365808
3297,-0.130735,-0.020075,0.869108,-2.703742,-1.090055,0.350540
3303,-0.129271,-0.017879,0.871549,-2.673205,-1.364884,0.457418
3309,-0.129759,-0.012998,0.873501,-2.642668,-1.273275,0.411613
3314,-0.135372,-0.014950,0.866668,-2.657937,-1.105323,0.274199
3320,-0.128539,-0.014950,0.870573,-2.749546,-1.105323,0.503223
3325,-0.124146,-0.019099,0.872769,-2.688474,-1.059519,0.381077
3331,-0.130979,-0.019831,0.871061,-2.673205,-1.028982,0.457418
3336,-0.129271,-0.021052,0.873501,-2.856425,-1.105323,0.625369
3342,-0.126586,-0.015926,0.871793,-2.642668,-0.983177,0.472686
3347,-0.126098,-0.018855,0.869108,-2.810620,-1.105323,0.304735
3353,-0.125122,-0.027397,0.871305,-2.642668,-1.044250,0.335272
3359,-0.124390,-0.016170,0.877894,-2.886961,-1.151128,0.411613
3364,-0.128539,-0.018367,0.872281,-2.780083,-1.059519,0.320003
3370,-0.130979,-0.017879,0.868620,-2.795351,-1.166397,0.457418
3375,-0.132200,-0.012510,0.877894,-2.841157,-1.151128,0.518491
3381,-0.128783,-0.014462,0.866424,-2.795351,-0.998445,0.503223
3386,-0.130979,-0.016903,0.875942,-2.841157,-1.120592,0.640638
3392,-0.128295,-0.018123,0.866912,-2.810620,-1.212201,0.350540
3397,-0.123414,-0.015926,0.865692,-2.642668,-1.227470,0.350540
3403,-0.130735,-0.012265,0.870573,-2.810620,-0.922104,0.442150
3408,-0.128051,-0.018367,0.874478,-2.673205,-1.258006,0.320003
3414,-0.127075,-0.013730,0.874478,-2.780083,-1.028982,0.442150
3420,-0.126830,-0.014462,0.868376,-2.627400,-1.227470,0.518491
3425,-0.124634,-0.012998,0.870573,-2.673205,-1.181665,0.396345
3431,-0.130247,-0.016903,0.871061,-2.734278,-1.074787,0.411613
3436,-0.128783,-0.019587,0.871305,-2.825888,-1.028982,0.411613
3442,-0.130491,-0.016659,0.875454,-2.764815,-1.212201,0.304735
3447,-0.126830,-0.015438,0.875698,-2.703742,-1.013714,0.274199
3453,-0.131468,-0.015682,0.870329,-2.612132,-1.105323,0.518491
3458,-0.130003,-0.012998,0.864959,-2.673205,-1.120592,0.457418
3464,-0.128295,-0.021052,0.877894,-2.703742,-1.074787,0.350540
3470,-0.127319,-0.013730,0.871305,-2.688474,-1.105323,0.381077
3475,-0.125366,-0.014950,0.870085,-2.657937,-1.059519,0.442150
3481,-0.136593,-0.016170,0.871305,-2.764815,-1.212201,0.350540
3486,-0.129027,-0.012998,0.869596,-2.688474,-1.181665,0.365808
3492,-0.125610,-0.019099,0.866180,-2.734278,-1.227470,0.426881
3497,-0.130491,-0.016414,0.873989,-2.810620,-1.166397,0.213125
3503,-0.130247,-0.020319,0.879603,-2.795351,-1.166397,0.411613
3508,-0.131712,-0.016903,0.869596,-2.734278,-1.151128,0.320003
3514,-0.128783,-0.015926,0.875454,-2.810620,-1.044250,0.350540
3519,-0.131468,-0.019099,0.869108,-2.719010,-1.120592,0.396345
3525,-0.123902,-0.013730,0.870573,-2.795351,-1.120592,0.503223
3531,-0.122437,-0.020075,0.866912,-2.795351,-1.044250,0.457418
3536,-0.127319,-0.017391,0.873257,-2.795351,-1.303811,0.487955
3542,-0.128539,-0.015926,0.865936,-2.719010,-1.319080,0.487955
3547,-0.129027,-0.017635,0.876918,-2.627400,-1.181665,0.365808
3553,-0.124146,-0.017147,0.872769,-2.734278,-1.059519,0.243662
3558,-0.132932,-0.016414,0.876430,-2.795351,-1.105323,0.320003
3564,-0.127319,-0.015682,0.877406,-2.734278,-1.166397,0.228394
3569,-0.132444,-0.016414,0.871305,-2.688474,-0.998445,0.304735
3575,-0.130979,-0.019099,0.873501,-2.780083,-1.303811,0.533760
3581,-0.131712,-0.013486,0.878383,-2.642668,-1.090055,0.472686
3586,-0.128783,-0.018123,0.871793,-2.734278,-1.090055,0.411613
3592,-0.133420,-0.022760,0.868620,-2.825888,-0.983177,0.411613
3597,-0.125610,-0.017147,0.868132,-2.856425,-1.258006,0.487955
3603,-0.132444,-0.012510,0.871793,-2.749546,-1.151128,0.579565
3608,-0.128539,-0.015438,0.873013,-2.749546,-0.983177,0.381077
3614,-0.130491,-0.013974,0.872525,-2.841157,-1.090055,0.457418
3619,-0.126830,-0.020075,0.869108,-2.688474,-1.212201,0.411613
3625,-0.130491,-0.017147,0.872525,-2.841157,-1.166397,0.396345
3631,-0.133420,-0.017147,0.868132,-2.703742,-1.059519,0.442150
3636,-0.132932,-0.014950,0.871549,-2.749546,-1.013714,0.442150
3642,-0.121949,-0.015926,0.874233,-2.719010,-1.105323,0.335272
3647,-0.126830,-0.019831,0.883264,-2.825888,-1.181665,0.411613
3653,-0.129759,-0.013242,0.876918,-2.780083,-1.090055,0.579565
3658,-0.128783,-0.017879,0.872281,-2.688474,-0.998445,0.289467
3664,-0.126830,-0.012754,0.870817,-2.734278,-1.151128,0.411613
3669,-0.128539,-0.011777,0.878383,-2.642668,-1.303811,0.411613
3675,-0.131956,-0.018367,0.871549,-2.719010,-1.090055,0.320003
3680,-0.128539,-0.014218,0.877894,-2.703742,-1.090055,0.442150
3686,-0.130003,-0.015926,0.874233,-2.719010,-0.998445,0.396345
3692,-0.126830,-0.020807,0.874233,-2.612132,-1.334348,0.289467
3697,-0.127807,-0.016659,0.866424,-2.795351,-1.181665,0.442150
3703,-0.126830,-0.014462,0.871061,-2.581595,-1.120592,0.197857
3708,-0.135617,-0.016659,0.872037,-2.596863,-1.212201,0.335272
3714,-0.128539,-0.012998,0.859102,-2.780083,-1.166397,0.350540
3719,-0.126098,-0.015194,0.881067,-2.749546,-1.227470,0.289467
3725,-0.127563,-0.019099,0.862763,-2.734278,-1.288543,0.426881
3730,-0.129759,-0.021296,0.873013,-2.719010,-1.242738,0.426881
3736,-0.128051,-0.012510,0.871549,-2.764815,-1.181665,0.335272
3742,-0.130003,-0.013730,0.882043,-2.642668,-1.288543,0.365808
3747,-0.129515,-0.022516,0.872037,-2.734278,-1.059519,0.518491
3753,-0.133176,-0.015926,0.867400,-2.856425,-1.028982,0.396345
3758,-0.130979,-0.022272,0.873989,-2.810620,-1.303811,0.442150
3764,-0.126342,-0.018123,0.875454,-2.734278,-1.227470,0.381077
3769,-0.131468,-0.023736,0.872525,-2.810620,-0.967909,0.411613
3775,-0.122926,-0.018855,0.874478,-2.688474,-0.937372,0.442150
3780,-0.124390,-0.014950,0.871305,-2.703742,-0.998445,0.396345
3786,-0.134640,-0.019587,0.863495,-2.780083,-1.196933,0.304735
3792,-0.127563,-0.018367,0.864471,-2.688474,-1.151128,0.258930
3797,-0.130491,-0.012265,0.870573,-2.764815,-1.166397,0.152052
3803,-0.130979,-0.018855,0.870329,-2.703742,-1.212201,0.213125
3808,-0.128783,-0.015438,0.876430,-2.581595,-0.952640,0.518491
3814,-0.129515,-0.020075,0.873013,-2.749546,-1.105323,0.365808
3819,-0.133420,-0.016903,0.877650,-2.535790,-1.319080,0.197857
3825,-0.124634,-0.022272,0.868864,-2.810620,-1.135860,0.457418
3830,-0.128295,-0.023980,0.866180,-2.780083,-1.059519,0.549028
3836,-0.134396,-0.021540,0.867156,-2.612132,-1.181665,0.365808
3841,-0.126830,-0.016414,0.879847,-2.719010,-0.784689,0.381077
3847,-0.133664,-0.014462,0.859590,-2.703742,-1.090055,0.457418
3853,-0.127563,-0.018855,0.867400,-2.688474,-1.242738,0.411613
3858,-0.128783,-0.017391,0.873257,-2.703742,-1.120592,0.472686
3864,-0.122681,-0.013974,0.870085,-2.749546,-0.998445,0.197857
3869,-0.123170,-0.017391,0.883264,-2.856425,-1.166397,0.289467
3875,-0.126586,-0.012265,0.867156,-2.764815,-0.998445,0.411613
3880,-0.127807,-0.017879,0.863983,-2.764815,-1.090055,0.381077
3886,-0.128783,-0.012510,0.873989,-2.764815,-1.135860,0.365808
3891,-0.124146,-0.018123,0.869108,-2.657937,-1.227470,0.411613
3897,-0.128051,-0.013486,0.869108,-2.673205,-0.815226,0.442150
3903,-0.117312,-0.016903,0.873257,-2.749546,-1.120592,0.487955
3908,-0.127075,-0.031790,0.871793,-2.764815,-1.242738,0.320003
3914,-0.130491,-0.013974,0.879847,-2.749546,-1.166397,0.396345
3919,-0.133664,-0.011533,0.864715,-2.627400,-1.013714,0.411613
3925,-0.131956,-0.014950,0.871305,-2.688474,-1.120592,0.396345
3930,-0.132200,-0.017635,0.879359,-2.795351,-1.090055,0.426881
3936,-0.130491,-0.019831,0.868132,-2.856425,-1.074787,0.335272
3941,-0.125122,-0.017635,0.870329,-2.612132,-1.105323,0.350540
3947,-0.131712,-0.012754,0.867400,-2.810620,-1.212201,0.503223
3953,-0.128539,-0.019099,0.873989,-2.673205,-1.135860,0.396345
3958,-0.131223,-0.019831,0.867400,-2.825888,-1.181665,0.457418
3964,-0.132444,-0.010801,0.871061,-2.810620,-1.212201,0.579565
3969,-0.133176,-0.012021,0.872037,-2.703742,-1.151128,0.457418
3975,-0.130491,-0.015682,0.872281,-2.780083,-1.181665,0.320003
3980,-0.137081,-0.019099,0.871793,-2.657937,-1.044250,0.396345
3986,-0.127075,-0.011045,0.873501,-2.780083,-1.059519,0.335272
3991,-0.124878,-0.018855,0.870329,-2.764815,-1.059519,0.350540
3997,-0.131712,-0.010801,0.874478,-2.886961,-1.212201,0.564296
4003,-0.130735,-0.019587,0.871549,-2.749546,-1.105323,0.503223
4008,-0.126342,-0.019099,0.870085,-2.703742,-1.181665,0.274199
4014,-0.132200,-0.018367,0.867400,-2.688474,-1.090055,0.396345
4019,-0.127563,-0.017635,0.873501,-2.734278,-1.151128,0.533760
4025,-0.127319,-0.010801,0.869840,-2.673205,-1.028982,0.503223
4030,-0.127563,-0.015194,0.870085,-2.657937,-1.135860,0.228394
4036,-0.126098,-0.016903,0.868620,-2.719010,-1.090055,0.503223
4041,-0.129515,-0.020563,0.875454,-2.719010,-1.196933,0.426881
4047,-0.133176,-0.015682,0.872769,-2.795351,-1.151128,0.396345
4052,-0.131712,-0.016414,0.875942,-2.856425,-1.059519,0.533760
4058,-0.132688,-0.011777,0.864959,-2.703742,-1.181665,0.320003
4064,-0.125610,-0.018611,0.868620,-2.825888,-1.181665,0.457418
4069,-0.126586,-0.014218,0.872525,-2.703742,-1.273275,0.487955
4075,-0.127563,-0.018611,0.870329,-2.642668,-1.151128,0.228394
4080,-0.126098,-0.015194,0.877162,-2.673205,-1.212201,0.594833
4086,-0.132688,-0.018611,0.875454,-2.780083,-1.059519,0.228394
4091,-0.128539,-0.014462,0.873501,-2.795351,-0.998445,0.396345
4097,-0.130247,-0.017879,0.879603,-2.719010,-1.105323,0.304735
4102,-0.126342,-0.019831,0.880579,-2.627400,-1.074787,0.518491
4108,-0.124634,-0.017879,0.880335,-2.719010,-1.059519,0.228394
4114,-0.128783,-0.014706,0.871061,-2.749546,-1.196933,0.396345
4119,-0.131712,-0.011045,0.871793,-2.795351,-1.166397,0.381077
4125,-0.133176,-0.015194,0.867156,-2.734278,-1.013714,0.396345
4130,-0.127563,-0.021052,0.875942,-2.688474,-0.952640,0.350540
4136,-0.126830,-0.014706,0.867156,-2.734278,-1.059519,0.442150
4141,-0.130003,-0.012021,0.869108,-2.642668,-1.013714,0.442150
4147,-0.133176,-0.019099,0.874478,-2.673205,-0.998445,0.426881
4152,-0.130979,-0.017391,0.877406,-2.703742,-1.212201,0.304735
4158,-0.126830,-0.018611,0.873257,-2.703742,-1.105323,0.396345
4164,-0.130003,-0.021784,0.878383,-2.657937,-1.151128,0.411613
4169,-0.130003,-0.019099,0.868864,-2.688474,-1.212201,0.457418
4175,-0.129515,-0.018611,0.870573,-2.825888,-1.196933,0.411613
4180,-0.131223,-0.015682,0.879359,-2.612132,-1.334348,0.533760
4186,-0.130003,-0.013730,0.876430,-2.688474,-1.135860,0.274199
4191,-0.127319,-0.012998,0.876674,-2.856425,-1.105323,0.350540
4197,-0.131223,-0.017635,0.876186,-2.673205,-1.120592,0.396345
4202,-0.130247,-0.016903,0.879359,-2.596863,-1.090055,0.411613
4208,-0.129027,-0.019343,0.871793,-2.764815,-1.273275,0.365808
4213,-0.127319,-0.014950,0.869352,-2.642668,-1.105323,0.426881
4219,-0.124146,-0.020319,0.873745,-2.810620,-1.181665,0.396345
4225,-0.126830,-0.020807,0.872281,-2.764815,-1.074787,0.335272
4230,-0.129515,-0.019099,0.875454,-2.856425,-1.227470,0.304735
4236,-0.130491,-0.014950,0.866180,-2.627400,-1.273275,0.426881
4241,-0.127563,-0.017391,0.868864,-2.764815,-1.151128,0.213125
4247,-0.130491,-0.014218,0.863983,-2.642668,-1.242738,0.381077
4252,-0.129271,-0.017635,0.870085,-2.719010,-1.074787,0.350540
4258,-0.129759,-0.016903,0.870329,-2.566327,-1.135860,0.335272
4263,-0.132688,-0.015438,0.868132,-2.673205,-1.258006,0.335272
4269,-0.129271,-0.015194,0.871061,-2.581595,-1.120592,0.320003
4275,-0.132200,-0.011533,0.873989,-2.673205,-1.196933,0.533760
4280,-0.127807,-0.013486,0.866912,-2.703742,-1.242738,0.289467
4286,-0.134152,-0.020807,0.869352,-2.719010,-1.135860,0.258930
4291,-0.125854,-0.015194,0.867888,-2.841157,-1.059519,0.381077
4297,-0.127075,-0.015682,0.870817,-2.886961,-1.135860,0.350540
4302,-0.123658,-0.017147,0.872525,-2.703742,-1.242738,0.258930
4308,-0.126342,-0.012754,0.883264,-2.719010,-0.876299,0.289467
4313,-0.129027,-0.016903,0.871305,-2.795351,-0.952640,0.472686
4319,-0.128539,-0.012754,0.872769,-2.825888,-1.166397,0.518491
4325,-0.131223,-0.017635,0.868620,-2.596863,-1.120592,0.411613
4330,-0.124878,-0.014218,0.868132,-2.871693,-1.212201,0.472686
4336,-0.126830,-0.017391,0.877894,-2.612132,-1.090055,0.365808
4341,-0.126342,-0.021296,0.872037,-2.673205,-1.288543,0.457418
4347,-0.127563,-0.018611,0.867644,-2.535790,-1.166397,0.396345
4352,-0.130491,-0.018611,0.870329,-2.841157,-1.303811,0.396345
4358,-0.130491,-0.019587,0.866424,-2.749546,-1.074787,0.335272
4363,-0.125610,-0.019343,0.877650,-2.764815,-1.028982,0.472686
4369,-0.124146,-0.016903,0.870085,-2.657937,-0.952640,0.503223
4374,-0.130491,-0.013730,0.878383,-2.673205,-1.105323,0.289467
4380,-0.124390,-0.017391,0.867400,-2.734278,-0.998445,0.487955
4386,-0.132200,-0.013242,0.871305,-2.581595,-1.120592,0.457418
4391,-0.132932,-0.016659,0.868620,-2.810620,-0.906835,0.274199
4397,-0.132688,-0.016414,0.871061,-2.795351,-0.922104,0.381077
4402,-0.130735,-0.016170,0.865692,-2.688474,-1.044250,0.228394
4408,-0.130735,-0.018367,0.875210,-2.719010,-1.288543,0.396345
4413,-0.119997,-0.015682,0.865936,-2.825888,-1.166397,0.289467
4419,-0.130979,-0.013730,0.867400,-2.871693,-1.196933,0.320003
4424,-0.137325,-0.014950,0.873257,-2.734278,-1.090055,0.350540
4430,-0.128051,-0.020075,0.872525,-2.764815,-1.074787,0.426881
4436,-0.127075,-0.012265,0.873745,-2.657937,-1.090055,0.350540
4441,-0.126830,-0.018611,0.875454,-2.688474,-1.105323,0.320003
4447,-0.131468,-0.019099,0.872769,-2.719010,-1.502299,0.335272
4452,-0.130735,-0.016170,0.870573,-2.703742,-1.090055,0.320003
4458,-0.130979,-0.020807,0.871549,-2.734278,-1.044250,0.258930
4463,-0.130735,-0.022028,0.876430,-2.764815,-1.166397,0.136784
4469,-0.129759,-0.025445,0.871793,-2.657937,-1.151128,0.472686
4474,-0.131956,-0.020075,0.872037,-2.902230,-1.028982,0.411613
4480,-0.134640,-0.020075,0.873501,-2.780083,-0.815226,0.258930
4486,-0.127563,-0.016903,0.874233,-2.917498,-1.044250,0.350540
4491,-0.127075,-0.017879,0.870817,-2.810620,-0.876299,0.320003
4497,-0.128539,-0.007872,0.868620,-2.657937,-1.120592,0.304735
4502,-0.132688,-0.021052,0.868864,-2.673205,-1.334348,0.442150
4508,-0.130247,-0.012754,0.871549,-2.703742,-1.181665,0.289467
4513,-0.127075,-0.015438,0.874233,-2.657937,-1.196933,0.182589
4519,-0.133176,-0.019343,0.870085,-2.719010,-1.059519,0.472686
4524,-0.125366,-0.009093,0.871305,-2.719010,-1.242738,0.503223
4530,-0.132932,-0.021784,0.877406,-2.871693,-1.273275,0.350540
4536,-0.131468,-0.019587,0.877650,-2.627400,-1.013714,0.533760
4541,-0.131712,-0.018367,0.877406,-2.749546,-1.090055,0.503223
4547,-0.131223,-0.012998,0.875454,-2.871693,-1.196933,0.396345
4552,-0.127319,-0.018855,0.877650,-2.871693,-1.166397,0.289467
4558,-0.138545,-0.020807,0.874966,-2.673205,-1.212201,0.320003
4563,-0.129271,-0.016414,0.866424,-2.841157,-1.227470,0.487955
4569,-0.124146,-0.017635,0.871793,-2.703742,-1.242738,0.274199
4574,-0.128539,-0.023736,0.869108,-2.749546,-1.059519,0.350540
4580,-0.129515,-0.020319,0.874478,-2.764815,-1.090055,0.258930
4585,-0.128783,-0.015438,0.877894,-2.642668,-1.242738,0.426881
4591,-0.130979,-0.015926,0.873013,-2.703742,-1.227470,0.472686
4597,-0.134396,-0.013730,0.868132,-2.627400,-1.090055,0.228394
4602,-0.131712,-0.016170,0.863007,-2.764815,-1.212201,0.381077
4608,-0.124878,-0.014218,0.869352,-2.688474,-1.028982,0.411613
4613,-0.130491,-0.020319,0.875210,-2.688474,-1.151128,0.350540
4619,-0.131223,-0.024712,0.865936,-2.673205,-1.334348,0.381077
4624,-0.129759,-0.016414,0.873989,-2.703742,-1.196933,0.396345
4630,-0.132444,-0.020075,0.864227,-2.780083,-1.074787,0.304735
4635,-0.130735,-0.011289,0.876430,-2.764815,-1.166397,0.472686
4641,-0.132444,-0.015438,0.879603,-2.734278,-1.028982,0.518491
4647,-0.132932,-0.018611,0.878871,-2.703742,-1.028982,0.411613
4652,-0.122193,-0.013730,0.867644,-2.902230,-1.258006,0.426881
4658,-0.131956,-0.015682,0.872769,-2.886961,-1.196933,0.243662
4663,-0.129759,-0.013730,0.875942,-2.719010,-1.044250,0.381077
4669,-0.126098,-0.013974,0.867888,-2.688474,-1.074787,0.320003
4674,-0.131468,-0.016903,0.870817,-2.810620,-1.028982,0.518491
4680,-0.127807,-0.016170,0.874966,-2.719010,-1.105323,0.396345
4685,-0.134640,-0.014462,0.881067,-2.764815,-1.090055,0.365808
4691,-0.126098,-0.014218,0.876674,-2.764815,-0.754153,0.411613
4697,-0.134396,-0.011777,0.863739,-2.749546,-0.967909,0.350540
4702,-0.123658,-0.013242,0.875698,-2.734278,-0.983177,0.350540
4708,-0.126586,-0.014950,0.874966,-2.734278,-1.288543,0.487955
4713,-0.132688,-0.016659,0.874478,-2.657937,-1.227470,0.335272
4719,-0.126098,-0.013242,0.875698,-2.719010,-0.967909,0.457418
4724,-0.131712,-0.014706,0.866180,-2.825888,-1.028982,0.426881
4730,-0.125610,-0.015926,0.876918,-2.764815,-1.013714,0.396345
4735,-0.129515,-0.017391,0.870085,-2.688474,-1.074787,0.365808
4741,-0.133664,-0.019343,0.879115,-2.734278,-1.181665,0.350540
4746,-0.128051,-0.019587,0.871061,-2.810620,-1.227470,0.457418
4752,-0.129515,-0.017879,0.869596,-2.886961,-1.242738,0.396345
4758,-0.132200,-0.018611,0.874966,-2.642668,-1.181665,0.487955
4763,-0.127319,-0.015438,0.867888,-2.703742,-1.028982,0.350540
4769,-0.127075,-0.013242,0.873989,-2.688474,-1.090055,0.365808
4774,-0.125366,-0.019099,0.872281,-2.734278,-0.952640,0.549028
4780,-0.125366,-0.014706,0.869596,-2.627400,-1.242738,0.304735
4785,-0.132688,-0.018123,0.876918,-2.703742,-1.181665,0.274199
4791,-0.126342,-0.017635,0.876674,-2.764815,-1.242738,0.442150
4796,-0.127563,-0.021784,0.875942,-2.612132,-1.212201,0.564296
4802,-0.130003,-0.016170,0.864715,-2.719010,-1.044250,0.365808
4808,-0.126342,-0.019099,0.867644,-2.688474,-1.135860,0.320003
4813,-0.129759,-0.016903,0.866668,-2.825888,-1.151128,0.426881
4819,-0.127807,-0.019587,0.875210,-2.703742,-1.196933,0.426881
4824,-0.128539,-0.019099,0.869840,-2.673205,-1.151128,0.197857
4830,-0.130247,-0.020075,0.875210,-2.917498,-1.120592,0.442150
4835,-0.126098,-0.019099,0.871305,-2.719010,-0.952640,0.518491
4841,-0.131956,-0.015438,0.873257,-2.810620,-0.952640,0.304735
4846,-0.123658,-0.014950,0.873501,-2.795351,-1.028982,0.518491
4852,-0.126098,-0.018855,0.874722,-2.780083,-1.166397,0.518491
4858,-0.124146,-0.016659,0.873257,-2.657937,-1.181665,0.457418
4863,-0.128783,-0.011777,0.867888,-2.703742,-1.242738,0.350540
4869,-0.131712,-0.014218,0.873501,-2.780083,-1.151128,0.549028
4874,-0.133176,-0.013486,0.873989,-2.673205,-1.166397,0.365808
4880,-0.131468,-0.014950,0.873013,-2.734278,-1.258006,0.503223
4885,-0.121705,-0.012021,0.880823,-2.673205,-1.196933,0.289467
4891,-0.130491,-0.014462,0.870085,-2.596863,-1.013714,0.487955
4896,-0.128539,-0.013486,0.877650,-2.703742,-1.303811,0.320003
4902,-0.127807,-0.019831,0.872037,-2.719010,-1.212201,0.304735
4907,-0.130003,-0.016659,0.874478,-2.856425,-1.196933,0.411613
4913,-0.132444,-0.014950,0.865692,-2.627400,-1.258006,0.335272
4919,-0.127075,-0.016659,0.868132,-2.856425,-1.151128,0.487955
4924,-0.130491,-0.016903,0.867644,-2.612132,-1.258006,0.320003
4930,-0.126342,-0.019587,0.873501,-2.657937,-1.196933,0.472686
4935,-0.128539,-0.012754,0.868376,-2.642668,-1.151128,0.549028
4941,-0.125854,-0.018123,0.873501,-2.688474,-1.334348,0.320003
4946,-0.126586,-0.015926,0.875210,-2.627400,-1.532836,0.564296
4952,-0.126830,-0.018367,0.874966,-2.764815,-1.120592,0.350540
4957,-0.123658,-0.014462,0.874233,-2.764815,-0.937372,0.258930
4963,-0.127075,-0.019343,0.875698,-2.825888,-1.013714,0.411613
4969,-0.134152,-0.017635,0.853245,-2.780083,-1.105323,0.411613
4974,-0.126342,-0.017391,0.881555,-2.673205,-1.196933,0.350540
4980,-0.126342,-0.019587,0.872525,-2.795351,-0.967909,0.487955
4985,-0.121705,-0.016414,0.877162,-2.780083,-1.135860,0.228394
4991,-0.124878,-0.015438,0.871549,-2.886961,-1.074787,0.487955
4996,-0.133664,-0.015682,0.869596,-2.688474,-1.181665,0.335272
5002,-0.128051,-0.013974,0.870329,-2.505254,-1.425958,0.396345
5007,-0.131223,-0.018855,0.875698,-2.642668,-1.288543,0.381077
5013,-0.132688,-0.016170,0.868864,-2.734278,-1.028982,0.381077
5019,-0.128539,-0.013974,0.863739,-2.642668,-0.922104,0.304735
5024,-0.131956,-0.018855,0.871549,-2.734278,-0.952640,0.549028
5030,-0.128539,-0.014950,0.861787,-2.810620,-1.090055,0.426881
5035,-0.128051,-0.015438,0.871061,-2.703742,-1.105323,0.457418
5041,-0.124390,-0.016414,0.880091,-2.673205,-1.028982,0.472686
5046,-0.130979,-0.013242,0.875210,-2.688474,-0.998445,0.396345
5052,-0.126098,-0.017391,0.865936,-2.917498,-1.120592,0.350540
5057,-0.129027,-0.017147,0.872037,-2.642668,-0.998445,0.335272
5063,-0.131223,-0.012265,0.878627,-2.627400,-1.028982,0.457418
5068,-0.130003,-0.015682,0.867888,-2.673205,-1.135860,0.518491
5074,-0.130247,-0.018367,0.870085,-2.719010,-1.044250,0.457418
5080,-0.125366,-0.012754,0.871305,-2.719010,-1.044250,0.335272
5085,-0.127075,-0.014462,0.868620,-2.657937,-1.044250,0.381077
5091,-0.124878,-0.016659,0.873257,-2.764815,-1.181665,0.426881
5096,-0.132932,-0.017147,0.867156,-2.703742,-1.227470,0.426881
5102,-0.131712,-0.019587,0.873257,-2.948034,-1.044250,0.335272
5107,-0.131223,-0.012510,0.873745,-2.596863,-1.196933,0.182589
5113,-0.132200,-0.022516,0.869840,-2.871693,-1.196933,0.518491
5118,-0.130003,-0.017635,0.877406,-2.719010,-1.212201,0.487955
5124,-0.130003,-0.012021,0.875210,-2.948034,-1.135860,0.350540
5130,-0.130003,-0.016659,0.866180,-2.688474,-0.998445,0.487955
5135,-0.129271,-0.014950,0.877162,-2.734278,-1.181665,0.350540
5141,-0.124878,-0.017635,0.868620,-2.657937,-1.135860,0.381077
5146,-0.126342,-0.012754,0.871305,-2.780083,-1.028982,0.533760
5152,-0.131712,-0.015438,0.866180,-2.734278,-0.998445,0.350540
5157,-0.133176,-0.012998,0.868132,-2.673205,-1.059519,0.472686
5163,-0.131468,-0.009581,0.876674,-2.642668,-1.181665,0.594833
5168,-0.124878,-0.017147,0.872525,-2.734278,-1.120592,0.396345
5174,-0.127807,-0.020075,0.870573,-2.719010,-1.090055,0.274199
5180,-0.125366,-0.015438,0.877650,-2.688474,-1.135860,0.549028
5185,-0.125610,-0.010557,0.865447,-2.764815,-1.028982,0.487955
5191,-0.128783,-0.018611,0.873501,-2.780083,-1.196933,0.350540
5196,-0.121705,-0.024224,0.880335,-2.825888,-1.013714,0.381077
5202,-0.121705,-0.012998,0.881555,-2.780083,-0.937372,0.381077
5207,-0.128539,-0.014462,0.871793,-2.856425,-1.196933,0.503223
5213,-0.134396,-0.017147,0.870329,-2.734278,-1.090055,0.396345
5218,-0.128539,-0.017391,0.868376,-2.627400,-1.059519,0.258930
5224,-0.130491,-0.014218,0.867156,-2.703742,-1.258006,0.350540
5230,-0.129271,-0.016659,0.867644,-2.749546,-1.074787,0.426881
5235,-0.126586,-0.015438,0.872037,-2.749546,-1.364884,0.564296
5241,-0.131956,-0.016659,0.861787,-2.734278,-0.937372,0.381077
5246,-0.126830,-0.020807,0.876430,-2.581595,-1.090055,0.335272
5252,-0.128295,-0.016414,0.874722,-2.795351,-1.242738,0.289467
5257,-0.124878,-0.021784,0.875942,-2.795351,-0.998445,0.442150
5263,-0.126830,-0.021296,0.873257,-2.703742,-1.242738,0.549028
5268,-0.132932,-0.018367,0.873501,-2.825888,-1.074787,0.381077
5274,-0.124146,-0.016903,0.873013,-2.719010,-1.090055,0.320003
5279,-0.133420,-0.007872,0.870573,-2.734278,-1.273275,0.365808
5285,-0.132200,-0.012754,0.869108,-2.795351,-1.135860,0.411613
5291,-0.121217,-0.015682,0.874722,-2.673205,-1.212201,0.487955
5296,-0.132200,-0.020075,0.871549,-2.917498,-1.273275,0.274199
5302,-0.127563,-0.015438,0.865692,-2.719010,-0.906835,0.564296
5307,-0.132444,-0.019099,0.873745,-2.703742,-1.135860,0.396345
5313,-0.128783,-0.012998,0.872281,-2.841157,-1.151128,0.381077
5318,-0.126830,-0.012998,0.867156,-2.612132,-0.983177,0.503223
5324,-0.126342,-0.015682,0.873745,-2.764815,-1.273275,0.564296
5329,-0.127319,-0.019587,0.869352,-2.688474,-1.120592,0.411613
5335,-0.121949,-0.010801,0.876186,-2.673205,-1.074787,0.350540
5341,-0.128783,-0.019343,0.871305,-2.795351,-1.151128,0.197857
5346,-0.127075,-0.013730,0.873501,-2.688474,-1.059519,0.289467
5352,-0.136837,-0.018123,0.871549,-2.719010,-1.013714,0.335272
5357,-0.129515,-0.020075,0.864227,-2.734278,-1.135860,0.396345
5363,-0.123658,-0.015438,0.870085,-2.703742,-1.074787,0.274199
5368,-0.132444,-0.017147,0.872037,-2.856425,-1.120592,0.304735
5374,-0.129271,-0.016414,0.865936,-2.825888,-1.227470,0.365808
5379,-0.125854,-0.014218,0.874722,-2.703742,-1.135860,0.258930
5385,-0.130247,-0.014218,0.867644,-2.749546,-0.967909,0.457418
5391,-0.132932,-0.009337,0.869840,-2.703742,-1.196933,0.304735
5396,-0.124634,-0.015194,0.870329,-2.841157,-0.861031,0.304735
5402,-0.122437,-0.018855,0.864227,-2.703742,-1.044250,0.365808
5407,-0.128295,-0.013242,0.864959,-2.764815,-1.288543,0.350540
5413,-0.130003,-0.026421,0.869596,-2.856425,-1.090055,0.411613
5418,-0.127319,-0.018611,0.866424,-2.734278,-1.090055,0.213125
5424,-0.130491,-0.014462,0.867644,-2.749546,-1.105323,0.381077
5429,-0.125122,-0.014462,0.877894,-2.627400,-1.028982,0.350540
5435,-0.126342,-0.011045,0.882043,-2.764815,-0.952640,0.258930
5441,-0.128783,-0.022272,0.863495,-2.764815,-1.135860,0.320003
5446,-0.129027,-0.015438,0.872525,-2.780083,-0.967909,0.258930
5452,-0.128783,-0.019343,0.875454,-2.795351,-1.074787,0.182589
5457,-0.128051,-0.013730,0.873501,-2.749546,-1.196933,0.289467
5463,-0.127807,-0.019343,0.869840,-2.581595,-1.028982,0.442150
5468,-0.129027,-0.016659,0.873989,-2.749546,-1.212201,0.381077
5474,-0.125610,-0.015438,0.879603,-2.810620,-1.181665,0.396345
5479,-0.132200,-0.016659,0.874966,-2.810620,-1.303811,0.136784
5485,-0.134152,-0.017879,0.871549,-2.749546,-0.983177,0.289467
5490,-0.127807,-0.016659,0.867888,-2.841157,-1.044250,0.365808
5496,-0.131223,-0.021052,0.879115,-2.871693,-1.120592,0.274199
5502,-0.132688,-0.014950,0.870085,-2.719010,-1.227470,0.426881
5507,-0.127563,-0.017635,0.869596,-2.719010,-1.166397,0.320003
5513,-0.124878,-0.018611,0.873989,-2.703742,-1.166397,0.442150
5518,-0.132932,-0.017635,0.881555,-2.734278,-1.166397,0.396345
5524,-0.124390,-0.013730,0.865447,-2.734278,-1.044250,0.518491
5529,-0.124390,-0.013974,0.866912,-2.657937,-1.258006,0.243662
5535,-0.131468,-0.017879,0.871549,-2.749546,-1.059519,0.487955
5540,-0.128051,-0.012998,0.873501,-2.764815,-1.196933,0.442150
5546,-0.124146,-0.014218,0.880091,-2.795351,-1.044250,0.487955
5552,-0.133420,-0.014218,0.878627,-2.841157,-1.151128,0.228394
5557,-0.130979,-0.010069,0.868864,-2.612132,-1.242738,0.564296
5563,-0.129027,-0.019099,0.866912,-2.703742,-1.028982,0.396345
5568,-0.121461,-0.015926,0.864959,-2.764815,-1.196933,0.472686
5574,-0.123902,-0.022272,0.869596,-2.734278,-1.334348,0.381077
5579,-0.130003,-0.015438,0.879603,-2.749546,-1.090055,0.258930
5585,-0.130491,-0.015682,0.865692,-2.703742,-0.998445,0.365808
5590,-0.130979,-0.009581,0.873745,-2.749546,-1.074787,0.487955
5596,-0.133420,-0.009337,0.869108,-2.703742,-1.044250,0.487955
5601,-0.126098,-0.015926,0.871549,-2.566327,-1.059519,0.442150
5607,-0.126586,-0.011289,0.877894,-2.719010,-0.952640,0.518491
5613,-0.125122,-0.016903,0.869840,-2.627400,-1.135860,0.518491
5618,-0.130979,-0.022516,0.869596,-2.856425,-1.227470,0.518491
5624,-0.124878,-0.016903,0.878871,-2.902230,-0.799957,0.274199
5629,-0.085097,0.002378,0.895711,-5.803206,7.231168,-0.275460
5635,-0.217376,0.105614,0.897907,-9.864573,29.064837,-5.817853
5640,-0.034577,0.043624,0.843238,-12.261698,46.226406,-9.451709
5646,-0.102669,-0.102323,0.911818,-9.742429,36.225674,-5.970536
5652,-0.108526,-0.083042,0.809314,-7.131549,20.865759,-1.542729
5657,-0.144647,0.006039,0.924021,-4.367986,8.284681,1.113955
5663,-0.109258,0.051922,0.865447,-5.192474,16.056246,0.182589
5668,-0.050196,0.053874,0.784909,-2.383107,29.660301,-0.061704
5674,-0.061179,0.041915,0.868620,-1.726570,39.630505,0.503223
5679,-0.033357,0.041671,0.886925,-2.276229,38.943428,3.037761
5685,0.057433,0.062660,0.886925,-2.932766,38.317429,8.687032
5690,0.025949,0.072666,0.889365,-3.558766,39.645771,13.298059
5695,0.035224,0.098048,0.861054,-2.551059,42.378799,17.451036
5701,0.015699,0.125871,0.858126,-2.260961,39.157185,21.466599
5706,0.002276,0.142223,0.894734,-2.795351,31.416155,24.932503
5712,0.002764,0.169069,0.933540,-4.367986,23.904152,28.306797
5717,-0.055322,0.140026,0.769045,-2.780083,22.377321,30.719189
5723,-0.128051,0.109275,0.898639,-1.268521,19.445808,31.528410
5728,-0.146843,0.084869,0.892294,-3.955743,14.346196,33.467484
5734,-0.192970,0.053386,0.834452,-3.604572,4.772972,34.627872
5739,-0.204197,0.066809,0.885704,-4.138962,2.452190,35.559242
5745,-0.198583,0.043380,0.868864,-3.986279,-4.494886,36.658558
5750,-0.189797,0.018974,0.907913,-5.100865,-13.732207,38.399143
5756,-0.180035,-0.006408,0.874233,-6.520817,-17.763039,40.246609
5762,-0.208102,-0.037647,0.884728,-6.826183,-23.656603,41.742901
5767,-0.212495,-0.082066,0.842994,-7.207891,-29.809727,42.903294
5773,-0.239341,-0.107204,0.876430,-7.085744,-34.451290,43.636169
5779,-0.221281,-0.126484,0.876918,-7.116280,-35.062023,44.475929
5785,-0.221037,-0.153087,0.831279,-4.856572,-34.878803,45.529438
5790,-0.208346,-0.141128,0.852512,-4.871840,-28.878361,46.185974
5796,-0.109502,-0.111353,0.893514,-5.177207,-23.564993,48.476223
5802,-0.107306,-0.072304,0.878871,-5.955890,-18.358503,51.285591
5808,-0.106086,-0.098418,0.887413,-4.535938,-9.304400,53.652176
5813,-0.141962,-0.084018,0.867156,-5.070328,-8.342498,55.469105
5819,-0.100228,-0.053023,0.822493,-5.253549,-8.296693,57.057007
5824,-0.119997,-0.012265,0.812731,-2.932766,-17.198111,57.469250
5830,-0.122437,0.027760,0.958677,-6.963597,-32.115238,59.026619
5836,-0.068745,0.063636,0.890341,-5.375694,-44.192467,60.629787
5841,-0.150992,-0.038136,0.864471,-7.192621,-47.765247,60.263351
5847,-0.046780,-0.111109,0.863983,2.350066,-12.999329,61.057301
5853,-0.111699,-0.151134,0.925486,-4.001547,-14.846794,60.858814
5859,-0.168808,-0.131121,0.872037,-2.138815,-13.625330,59.881645
5864,-0.192238,-0.135758,0.842262,-2.474717,-12.434402,56.263054
5870,-0.201756,-0.079137,0.914015,-3.451888,-5.670545,52.232220
5876,-0.136837,-0.062053,0.890097,-5.116133,1.032238,50.140465
5881,-0.136105,-0.045213,0.892538,-5.986426,5.444777,49.270172
5887,-0.175154,-0.049362,0.891562,-6.780378,6.635704,47.804417
5892,-0.220793,-0.044481,0.859102,-5.711596,4.070630,45.575245
5898,-0.301331,-0.045213,0.861543,-4.505401,-0.693079,42.246758
5903,-0.311338,-0.052779,0.838357,-3.406083,-4.922399,37.895287
5909,-0.318171,-0.054731,0.863251,-2.184619,-8.510449,34.139290
5915,-0.251056,-0.045457,0.869596,-1.146375,-13.014597,32.566654
5920,-0.173445,-0.063029,0.848608,-0.108131,-16.007185,32.078068
5926,-0.088025,-0.053267,0.921093,-0.718863,-16.297281,34.093487
5932,-0.026035,0.001890,0.986744,-2.428912,-17.885185,38.918262
5938,-0.042143,0.017510,1.055080,-5.604719,-23.244358,44.277439
5943,-0.015784,0.016533,1.069235,-8.887403,-29.519630,49.361782
5949,0.016675,-0.017879,1.031406,-12.704478,-30.893778,54.262909
5955,0.028634,-0.001527,0.981375,-16.292528,-26.771336,57.744080
5960,0.081838,0.042647,0.948671,-20.491310,-18.648600,61.988667
5966,0.097214,0.067297,0.957701,-24.079363,-13.487915,66.599693
5972,0.074517,0.068517,0.962582,-24.842775,-15.503330,71.210724
5977,-0.028475,0.058267,0.923777,-25.392435,-17.289721,73.226135
5983,-0.010903,0.023123,0.882776,-26.033703,-16.892746,73.378815
5989,0.023021,0.028736,0.861787,-25.758875,-16.526306,75.623260
5994,0.079642,0.026540,0.898883,-26.995607,-11.762596,79.577744
6000,0.073296,0.045088,0.925486,-28.629314,-7.716497,83.959755
6005,0.065731,0.028736,0.921337,-30.751612,-2.525275,88.219612
6011,0.062314,0.010920,0.854221,-31.682976,4.482874,92.540535
6016,0.043277,0.003354,0.806874,-32.278439,14.056099,95.640007
6022,-0.012124,-0.001283,0.800772,-32.461662,25.049274,97.502731
6028,-0.055078,-0.008849,0.785641,-32.782295,36.302013,97.472198
6034,-0.115848,-0.097930,0.737561,-26.125315,40.790890,95.410973
6039,-0.120729,-0.113549,0.877650,-26.888731,24.072102,94.204788
6045,-0.068989,-0.111597,0.818344,-26.842924,33.874352,92.265709
6051,-0.025303,-0.131121,0.832256,-25.835217,42.714699,90.509850
6056,-0.023350,-0.106716,0.936956,-26.812387,44.669041,91.151123
6062,-0.037261,-0.115746,0.913527,-28.415558,45.432457,93.471901
6068,-0.043119,-0.242411,0.913039,-29.438536,46.608116,96.846199
6074,-0.145623,-0.268282,0.938421,-30.385172,38.867088,99.472343
6079,-0.131223,-0.287806,0.925974,-32.186829,26.087519,100.602196
6085,-0.205173,-0.294640,0.859590,-33.026588,13.277415,101.976341
6091,-0.278634,-0.247537,0.841774,-33.469364,6.956339,104.098640
6097,-0.233239,-0.249489,0.776611,-31.667706,4.192777,106.068253
6102,-0.293522,-0.298545,0.673374,-28.140730,-4.525423,109.534149
6108,-0.258133,-0.220202,0.798332,-28.812534,-8.968498,114.557426
6114,-0.113407,-0.156503,0.837625,-27.957510,-2.418397,120.786888
6120,-0.071674,-0.125752,0.773926,-24.903851,11.781121,126.130798
6126,-0.156850,-0.142592,0.694363,-20.750874,26.286007,128.955429
6131,-0.223721,-0.128925,0.657755,-16.384140,38.699135,129.306595
6137,-0.252276,-0.036183,0.755378,-12.628137,49.951870,128.573730
6143,-0.442152,0.053142,0.862275,-12.124283,61.723736,122.588554
6149,-0.795791,0.031909,0.740246,-8.704184,80.564812,105.762886
6154,-0.992990,-0.001527,0.592835,-0.642521,99.375359,82.738289
6160,-1.006901,-0.048142,0.459580,9.236069,110.338005,59.072418
6166,-0.853389,-0.061077,0.484474,16.427439,104.948296,44.048412
6171,-0.703538,-0.049362,0.602598,18.656609,85.114769,37.941093
6177,-0.540263,-0.046922,0.739026,17.083975,58.273094,38.170120
6183,-0.453379,-0.091584,0.822737,14.091389,35.141621,41.025291
6188,-0.383091,-0.102079,0.903520,10.701825,17.766296,44.369049
6194,-0.286200,-0.069863,0.971856,7.144312,12.987317,48.033443
6200,-0.177594,-0.035939,0.963314,5.754897,15.063806,53.728519
6205,-0.120973,-0.009337,0.851780,5.938116,26.362347,61.133640
6211,-0.113407,0.035326,0.795403,7.526019,39.599968,68.095985
6216,-0.090954,0.050213,0.778563,9.755191,51.738258,74.355995
6222,-0.085341,0.087554,0.765628,12.442412,61.143536,81.119843
6227,-0.104865,0.094143,0.749276,14.396754,71.235878,86.830193
6233,-0.077531,0.093899,0.658975,18.244366,78.961639,91.945068
6238,-0.061423,0.104638,0.607967,22.794319,87.466087,96.006439
6244,-0.101204,0.116109,0.619194,28.977982,91.893890,98.266151
6249,-0.142450,0.138318,0.610164,34.627251,93.084816,98.434097
6255,-0.037261,0.186397,0.167932,46.750282,109.879951,99.121170
6261,-0.230067,0.127091,0.389536,60.873466,121.483864,95.517853
6266,-0.393829,0.074863,0.603330,69.897026,113.361115,87.074478
6272,-1.005437,0.050213,2.190922,80.966537,18.071661,77.226433
6277,-0.480958,-0.025201,1.170031,68.202248,6.589900,66.324867
6283,-0.406764,-0.094513,0.952820,64.598923,-21.045725,57.102814
6289,-0.372352,-0.057660,0.854953,62.644581,-28.267630,49.560272
6294,-0.475832,0.004574,0.987476,59.942093,-47.887398,42.063534
6300,-0.472660,0.044844,0.921581,55.773849,-52.513691,36.826508
6306,-0.459236,0.036546,0.951112,50.750576,-59.979893,33.345337
6311,-0.423360,0.060952,0.981375,44.444767,-66.377304,32.184944
6317,-0.395293,0.104638,0.983083,37.467155,-73.461800,31.894846
6323,-0.363566,0.101465,0.951112,31.481983,-80.637901,32.459774
6328,-0.366983,0.123186,0.945986,27.481688,-85.691711,33.162117
6334,-0.353316,0.141247,0.947695,23.664612,-88.501068,33.543827
6339,-0.324029,0.145396,0.913283,21.557587,-89.615654,34.215630
6345,-0.307433,0.143931,0.841286,22.015636,-86.684151,35.742458
6351,-0.290105,0.130264,0.795891,23.695148,-83.523598,35.391289
6356,-0.295230,0.104882,0.840554,26.916759,-79.538582,35.467632
6362,-0.309873,0.045576,0.814928,32.871399,-71.629601,35.192799
6368,-0.306213,0.102685,0.852268,38.597012,-58.819496,33.589630
6373,-0.228358,0.120990,0.877894,43.956188,-41.841148,31.879580
6379,-0.226406,0.098781,0.850072,50.017700,-23.335968,29.604603
6385,-0.242270,0.108299,0.752937,57.575508,-7.609619,28.337334
6390,-0.229823,0.136609,0.861054,62.812534,3.444630,26.382992
6396,-0.222257,0.127335,0.771729,65.759315,19.552687,24.947773
6401,-0.268384,0.169313,0.721210,70.553558,37.615086,23.451479
6407,-0.269360,0.167117,0.780760,74.645462,46.623383,22.596451
6412,-0.241537,0.155646,0.804189,78.538887,50.623680,22.550648
6418,-0.265943,0.154670,0.874478,80.477959,55.585873,22.886551
6423,-0.196631,0.186153,0.859834,81.134491,60.609142,23.940062
6429,-0.311094,0.187373,0.895222,80.813858,58.593727,24.810356
6434,-0.340625,0.185909,0.884240,80.737511,48.623528,25.863869
6440,-0.361858,0.182980,1.041169,78.401466,33.324696,27.573919
6446,-0.366251,0.188838,1.080950,72.523170,16.010443,29.009140
6451,-0.331839,0.186885,1.071920,64.430969,1.093312,30.352749
6457,-0.325737,0.262543,1.162221,52.185799,-10.357913,32.490311
6462,-0.315975,0.274258,1.124880,37.635105,-21.564844,35.620316
6468,-0.248859,0.235941,1.218110,19.374220,-36.039196,41.177975
6473,-0.214203,0.268644,1.276440,-0.337155,-52.315201,47.667000
6479,-0.140010,0.245459,1.350877,-20.369165,-71.965500,54.385052
6485,-0.159290,0.255221,1.316709,-39.790443,-95.096977,59.377785
6491,-0.256913,0.300860,1.190288,-57.944454,-114.457191,59.866379
6496,-0.270092,0.300128,1.172716,-75.686211,-126.916107,56.476814
6502,-0.251788,0.321361,1.124880,-93.473785,-132.855484,51.529881
6508,-0.237144,0.297443,1.159536,-112.696579,-141.970657,46.308121
6514,-0.159290,0.261811,1.195413,-132.331604,-150.490372,43.178120
6520,-0.074358,0.224226,1.070944,-150.592499,-155.254074,39.880169
6526,-0.095835,0.215440,1.061914,-168.257919,-161.391937,35.788265
6532,-0.069965,0.165896,0.885216,-182.961288,-153.620377,31.375727
6538,-0.154409,0.079256,0.995286,-198.229599,-154.261642,23.772112
6543,-0.177594,0.043624,0.917676,-208.566238,-144.886902,15.191328
6549,-0.076799,0.035326,0.799552,-216.933258,-132.397430,6.931178
6555,-0.152701,0.028736,0.999435,-224.826965,-126.778702,-0.535021
6561,-0.106086,0.031909,0.935980,-230.491501,-119.343040,-7.894341
6567,5.643415,-1.808039,-8.116104,-42.004345,497.618439,15.954742
6573,1.242087,0.041915,-0.085156,-82.434799,-73.202232,4.182883
6578,-0.060691,-0.164313,1.182234,-68.250557,-104.532791,1.068150
6584,0.046450,-0.195797,0.586734,-52.921185,-92.272339,-4.779609
6590,-0.240805,-0.103543,1.301822,-56.341278,-107.021515,-19.177618
6596,0.026437,-0.073036,1.065086,-66.769524,-111.113426,-29.086744
6602,0.188980,0.014825,0.986500,-62.692890,-123.954056,-24.811619
6608,0.068659,-0.013242,1.074360,-59.013233,-142.871490,-19.192884
6614,0.023021,-0.024956,0.912551,-61.059181,-148.749786,-18.108835
6619,-0.029452,-0.030326,0.891562,-64.097572,-145.573975,-18.841713
6625,0.003008,-0.083774,0.853977,-71.365288,-139.100220,-22.414495
6631,0.129918,-0.098418,0.753913,-70.922501,-126.015289,-23.300058
6637,0.205820,-0.132342,0.821517,-68.830750,-123.648697,-21.986984
6643,0.202403,-0.215809,0.785641,-71.105728,-104.822891,-22.460300
6649,0.142365,-0.257543,0.794427,-75.670944,-79.202675,-25.804058
6655,0.066707,-0.231673,1.061181,-81.228600,-68.423256,-27.956888
6661,0.072564,-0.268282,0.952576,-84.923538,-61.079201,-29.514254
6666,0.080862,-0.289026,0.765628,-83.778419,-56.071201,-30.140255
6672,0.028390,-0.239727,0.877162,-83.931099,-57.857594,-30.369282
6678,0.052063,-0.188719,0.849828,-82.343201,-50.986862,-28.995134
6684,0.065975,-0.198969,0.846655,-79.121590,-52.666374,-26.124693
6690,0.154079,-0.206535,0.805898,-76.098457,-60.269993,-22.231276
6695,0.132358,-0.203606,0.782956,-72.525681,-59.567646,-18.673761
6701,0.181170,-0.228500,0.792474,-69.762115,-59.323349,-16.536200
6707,0.101851,-0.282437,0.789546,-65.929771,-63.674816,-15.757517
6713,0.080374,-0.276335,0.825910,-61.578308,-66.636864,-16.337713
6719,0.103071,-0.334909,0.750741,-55.654205,-72.163994,-16.978979
6725,0.067683,-0.331004,0.701929,-48.493374,-81.340240,-18.627956
6730,0.021556,-0.392751,0.657023,-39.790443,-86.363510,-22.063326
6736,0.094285,-0.358827,0.863251,-33.851074,-88.607956,-23.910789
6742,0.198010,-0.350773,0.746592,-29.896585,-80.805855,-23.361130
6748,0.052308,-0.342963,0.729019,-20.750874,-82.225800,-22.460300
6754,0.054260,-0.312456,0.745127,-13.254137,-83.126633,-22.643520
6759,0.064266,-0.305866,0.669225,-5.329889,-77.156723,-24.536789
6765,0.496980,0.045088,0.923533,1.678260,-39.535633,-27.239279
6771,0.356891,0.218369,1.010173,6.029726,28.683130,-37.072063
6776,0.136995,0.024099,0.390024,36.871693,-2.586349,-46.523140
6782,0.074761,0.000181,0.413698,67.835808,-12.037427,-60.203537
6787,0.172384,-0.096953,0.671666,90.035919,-3.899422,-71.059303
6793,0.286847,-0.198969,0.662880,108.556366,9.857317,-75.288620
6799,0.368606,-0.265841,0.701685,122.649010,26.041716,-75.105400
6804,0.330045,-0.309771,0.695828,134.833099,39.798450,-73.578568
6810,0.241208,-0.335397,0.749520,144.452148,46.501236,-73.929741
6816,0.199718,-0.338326,0.780027,153.384094,48.089142,-75.258087
6822,0.099899,-0.300497,0.736829,161.415207,41.813866,-79.105698
6827,0.031563,-0.205559,0.698024,169.583755,31.064985,-84.510674
6833,0.061582,-0.147717,0.701929,175.263565,22.697958,-87.655937
6839,0.108441,-0.101102,0.753425,177.019424,14.178246,-87.747551
6844,0.156520,-0.077429,0.743907,175.416245,7.399119,-85.274086
6850,0.161401,-0.062297,0.790034,170.118149,2.635411,-80.693596
6856,0.106488,-0.012265,0.797600,161.125122,-3.655129,-75.563454
6861,0.107220,0.057779,0.792474,150.009796,-4.113179,-70.982956
6867,0.136751,0.114400,0.777099,139.535751,-5.792692,-65.379494
6873,0.154568,0.129532,0.760747,129.122757,-7.243180,-58.982075
6878,0.121132,0.177611,0.749276,118.602905,-7.624887,-53.638172
6884,0.079642,0.185665,0.717793,111.365723,-9.777718,-49.210361
6890,0.026682,0.201041,0.697292,105.243141,-12.816110,-47.164410
6895,0.003252,0.240090,0.665809,101.502403,-18.358503,-46.843773
6901,0.009842,0.258638,0.592591,100.189331,-21.824408,-47.301823
6907,0.013014,0.294514,0.586978,100.067184,-25.672018,-47.851486
6913,0.017407,0.288413,0.567454,99.364838,-30.420460,-49.088215
6918,0.057189,0.288657,0.587466,98.173920,-35.138363,-49.882168
6924,0.106244,0.264740,0.628468,94.753815,-41.871681,-50.172268
6929,0.166038,0.213976,0.703393,87.883080,-49.444759,-48.248463
6935,0.236571,0.181516,0.697536,78.935867,-58.269840,-41.988457
6941,0.316133,0.199820,0.763676,67.683128,-66.789551,-31.590742
6946,0.302710,0.190790,0.788569,52.949211,-73.538139,-18.398932
6952,0.221195,0.226178,0.675327,39.284084,-71.370033,-6.688146
6958,0.228517,0.267180,0.665565,26.611393,-63.491600,5.908202
6963,0.246089,0.394578,0.673863,14.412023,-54.315350,19.909233
6969,0.319550,0.274746,0.693387,2.426407,-63.109894,39.437389
6974,0.461592,0.107811,0.718037,-11.818917,-69.568382,61.362667
6980,0.560435,-0.252418,0.849096,-34.019024,-72.606773,96.846199
6985,0.566536,0.226178,0.958189,-59.654495,-58.468327,131.154068
6991,0.509427,0.740407,0.742931,-79.075775,-11.441963,148.865280
6997,0.195569,1.023758,0.423704,-77.380997,7.780827,154.163391
7002,0.067439,1.117231,0.364886,-64.219719,9.185512,144.849731
7008,-0.047512,1.023269,0.513273,-49.226254,16.621174,124.191719
7014,0.025461,0.675244,0.530601,-33.942684,10.223755,103.426826
7019,0.176777,0.280847,0.636766,-26.583364,3.246142,88.311218
7025,0.169211,-0.044969,0.759771,-31.591362,13.353757,71.821457
7030,0.048891,-0.174808,0.936956,-44.462543,22.942249,52.644466
7036,0.056212,-0.226060,0.830547,-39.546150,15.277563,23.573626
7042,0.148710,-0.125996,0.793939,-32.186829,0.528385,1.083418
7047,0.120155,-0.061321,0.706566,-22.567799,-7.334790,-15.971273
7053,0.141877,-0.008361,0.667761,-14.017552,-14.953671,-31.331182
7059,0.259268,0.048017,0.668737,-1.741839,-22.725235,-39.713482
7064,0.397893,0.089018,0.705834,8.564263,-23.534456,-37.072063
7070,0.438650,0.108055,0.791986,11.617924,-15.854501,-28.903521
7076,0.468913,0.156378,0.798576,9.877337,-4.968203,-17.467566
7081,0.507230,0.250828,0.788325,9.190264,5.185216,-1.725949
7086,0.556530,0.295003,0.786129,8.289434,17.796831,16.290646
7092,0.600704,0.314039,0.797844,6.793141,34.301865,36.551682
7097,0.647807,0.315015,0.825422,3.510456,53.494118,58.431152
7102,0.638045,0.307694,0.793451,1.907285,73.892570,81.028236
7108,0.605341,0.299884,0.780760,3.067676,90.199112,103.060394
7113,0.576787,0.286705,0.772462,4.731920,107.650772,124.542900
7119,0.496248,0.247655,0.745371,6.640458,127.927078,143.429794
7124,0.358355,0.214952,0.712180,10.594948,146.340637,158.102615
7130,0.141388,0.200308,0.655314,16.412170,156.402451,170.393585
7136,0.193129,0.186397,0.674839,22.809587,150.966949,178.684296
7141,0.213141,0.105126,0.727311,28.245102,151.806702,179.188141
7147,0.199962,0.052654,0.734633,34.276081,146.752884,173.615204
7153,0.147978,0.065101,0.798820,37.528229,140.523438,164.927551
7158,0.032783,0.063392,0.828839,37.009106,126.583466,153.567947
7164,-0.073870,0.047529,0.762699,35.237984,112.170189,139.673782
7170,-0.080216,0.048749,0.819565,31.558323,102.490097,125.397919
7175,0.043277,0.081208,0.838845,25.588419,96.672867,114.496346
7181,0.124304,0.090239,0.818588,19.374220,94.397896,107.427124
7186,0.154812,0.139294,0.877406,11.908021,93.145897,102.693954
7192,0.149930,0.171754,0.830303,4.792994,91.527451,98.922684
7197,0.133579,0.186641,0.779051,-0.352424,91.069397,94.143707
7203,0.133823,0.251072,0.814195,-6.749841,91.557983,90.738876
7208,0.108685,0.175659,0.701685,-10.231013,93.435997,87.257698
7214,0.051087,0.161015,0.678256,-15.483310,95.527748,81.074043
7219,0.029366,0.157354,0.755622,-17.239164,97.039307,73.180328
7225,0.026193,0.151009,0.819809,-20.888287,94.184143,65.958427
7230,0.011062,0.132949,0.767581,-23.987751,89.817406,59.744225
7236,0.004472,0.084625,0.683137,-23.132727,85.221642,53.102516
7242,-0.002117,0.106102,0.812487,-24.003021,78.152420,49.468662
7247,-0.025791,0.030933,0.760747,-23.590776,72.839050,46.949390
7253,-0.047268,0.010188,0.790766,-23.941946,69.235733,44.216366
7259,-0.024326,0.012140,0.759527,-21.895996,67.678360,42.155144
7264,0.008377,0.039963,0.760015,-18.048384,64.288803,42.460510
7270,-0.036041,0.032641,0.762211,-12.017405,62.838318,42.811684
7275,-0.018469,0.008235,0.734389,-5.879548,58.776947,43.239197
7281,-0.010903,0.020438,0.778807,0.014016,56.334019,43.956806
7286,0.025217,-0.015438,0.642867,6.838946,60.257969,44.613338
7292,-0.019933,0.029468,0.707298,16.916023,68.411247,45.254612
7297,-0.006510,0.073643,0.913283,18.961975,59.128120,46.124901
7303,0.080862,0.059731,0.711691,24.565443,64.090317,48.293003
7308,0.032539,0.078768,0.817612,28.489395,68.121147,50.186272
7314,0.035224,0.110983,0.891318,30.504812,72.365738,52.491783
7319,0.057677,0.107567,0.830791,30.245251,74.885002,53.865932
7325,0.112102,0.073887,0.605771,32.459152,84.213936,54.675152
7330,0.009598,0.116841,0.737073,35.940323,95.344528,54.583542
7336,-0.024326,0.149056,0.826398,34.108131,88.702820,53.102516
7341,-0.021154,0.107323,0.633593,39.009251,106.017067,51.881050
7347,-0.069233,0.191278,0.943790,37.497696,99.543312,50.308414
7352,0.020092,0.112936,0.725359,36.642670,104.077995,49.697685
7358,-0.100960,0.179564,0.898883,36.001396,110.078438,48.323540
7364,-0.134640,0.149056,0.800528,35.467010,119.254692,47.010468
7369,-0.152701,0.163456,0.798820,32.856129,123.285515,44.063683
7375,-0.139521,0.136121,0.673130,34.199741,135.301666,41.681828
7381,-0.096323,0.129288,0.631641,36.688473,146.249039,39.498463
7386,-0.108282,0.128556,0.715352,34.825741,147.668991,36.368458
7392,-0.159778,0.109275,0.754157,33.589008,150.661575,32.917824
7398,-0.203220,0.135145,0.774414,32.062180,155.547440,28.108309
7403,-0.214203,0.118549,0.821029,30.657494,160.921875,23.543089
7409,-0.209566,0.118305,0.884484,31.130810,164.494659,20.565771
7414,-0.170517,0.113424,0.854953,29.115395,171.441742,18.519817
7420,-0.151236,0.110007,0.847387,29.176470,183.412079,17.344158
7426,-0.237877,0.116841,0.926462,29.145933,194.359451,16.137962
7431,-0.346970,0.200308,1.242516,27.161055,174.464859,13.771376
7437,-0.300843,0.159063,1.111213,25.680027,152.631195,12.015521
7443,-0.315243,0.133681,1.031651,23.343979,142.538849,8.519080
7448,-0.391144,0.085601,1.003828,22.076710,128.110306,4.198152
7454,-0.394073,0.061196,0.948671,23.740953,102.795464,-0.489216
7459,-0.351363,0.068762,0.893026,24.947151,87.740921,-5.772048
7465,-0.360149,0.107811,0.895467,25.557882,78.228767,-11.253367
7471,-0.382602,0.126359,0.885704,26.519785,72.045105,-17.467566
7476,-0.408717,0.137098,0.897419,27.023638,67.128708,-23.666496
7482,-0.438003,0.150033,0.888389,27.130518,61.174068,-30.033379
7487,-0.416526,0.140270,0.879115,26.657198,53.249825,-35.423088
7493,-0.409449,0.143931,0.868132,26.367102,46.424892,-40.049381
7499,-0.407252,0.159307,0.860566,26.077003,39.630505,-43.958065
7504,-0.419699,0.167361,0.853245,25.649490,31.645182,-47.118607
7510,-0.439468,0.169801,0.841774,25.191441,25.782154,-51.134167
7516,-0.442885,0.174926,0.852024,23.924171,23.537714,-55.027584
7521,-0.440688,0.170289,0.857149,22.611099,20.117615,-57.959095
7527,-0.433366,0.181272,0.913527,19.557440,19.369467,-59.653881
7533,-0.423848,0.176635,0.956481,14.808998,20.896297,-60.463097
7538,-0.393829,0.179319,0.976982,8.182556,28.286154,-59.562275
7544,-0.367959,0.183224,0.986256,1.418699,33.187279,-56.478073
7549,-0.397490,0.175903,0.946963,-3.848864,32.576546,-52.264023
7555,-0.417015,0.181760,0.876430,-6.688768,32.057426,-48.645435
7561,-0.397246,0.192010,0.806630,-7.849159,30.835962,-44.446651
7566,-0.431658,0.191034,0.789302,-8.185061,28.667864,-40.354748
7572,-0.434831,0.201773,0.776611,-7.803354,26.927277,-35.850601
7577,-0.417747,0.223006,0.761967,-8.108720,24.972933,-30.292938
7583,-0.435563,0.224226,0.775634,-8.429354,23.262884,-24.307764
7589,-0.440932,0.216660,0.737317,-8.887403,23.033859,-18.475273
7594,-0.437759,0.178587,0.719013,-8.505695,24.575958,-13.299319
7600,-0.419455,0.163700,0.721942,-8.261403,27.156300,-7.451560
7606,-0.438492,0.159551,0.715840,-8.032378,29.782448,-2.840535
7611,-0.437759,0.136609,0.739026,-8.062915,33.065136,1.678882
7617,-0.460945,0.115621,0.801260,-9.238573,35.874500,5.007371
7622,-0.499506,0.097804,0.827619,-10.750135,35.385914,7.419763
7628,-0.529769,0.085846,0.816148,-11.986868,32.775036,8.061031
7633,-0.542948,0.096096,0.822737,-12.383843,29.339664,8.228983
7639,-0.548805,0.113424,0.772218,-10.826477,25.492054,8.213715
7644,-0.529525,0.113424,0.733657,-7.620134,23.949957,8.687032
7650,-0.522935,0.109031,0.738782,-4.383255,26.072252,9.328300
7655,-0.504387,0.096096,0.760991,-2.138815,32.576546,10.397082
7661,-0.490232,0.076571,0.779295,-0.291350,42.913185,12.824741
7666,-0.446301,0.086090,0.744151,3.250895,53.204018,16.565474
7672,-0.424824,0.104150,0.718281,7.602361,60.593876,21.527672
7677,-0.469731,0.095608,0.731704,12.411876,63.494850,24.566065
7683,-0.502923,0.103418,0.757086,17.404610,63.158951,26.138700
7688,-0.560764,0.115376,0.755866,21.771343,61.555775,25.924942
7694,-0.577360,0.124407,0.770265,25.451002,58.838028,24.077478
7699,-0.633005,0.103174,0.798576,27.893932,58.242561,21.298647
7705,-0.663512,0.109031,0.814439,29.894079,51.997826,18.122841
7711,-0.642279,0.131484,0.766848,33.894375,34.317131,15.542498
7716,-0.653506,0.129532,0.699977,38.749691,13.796537,11.618546
7722,-0.690359,0.134901,0.709251,43.711891,-6.830936,6.549470
7727,-0.679132,0.135877,0.689482,48.521404,-27.076700,0.518491
7733,-0.646184,0.144663,0.664832,52.643848,-43.367981,-4.871218
7738,-0.629344,0.146616,0.715352,55.697506,-58.208763,-9.161611
7744,-0.595909,0.160527,0.821273,55.315800,-72.301407,-12.474833
7750,-0.551002,0.148812,0.886925,51.880432,-81.691414,-14.505516
7755,-0.543680,0.180784,0.901324,47.696915,-87.814003,-16.017076
7761,-0.516590,0.229107,0.854221,45.360867,-92.470833,-17.009516
7767,-0.461433,0.230327,0.791986,45.650967,-97.860542,-17.345421
7773,-0.497065,0.207142,0.741955,48.674088,-98.257515,-19.925762
7778,-0.519763,0.202017,0.753425,52.750725,-107.449036,-24.506252
7784,-0.530257,0.206654,0.770021,57.407555,-118.610161,-29.514254
7790,-0.521471,0.209094,0.797844,61.682678,-131.008026,-34.537525
7796,-0.500970,0.224226,0.822982,65.515022,-143.894455,-39.652409
7802,-0.483154,0.222762,0.853733,69.042000,-156.628220,-43.835918
7807,-0.449474,0.218857,0.895222,72.309418,-169.804764,-48.706509
7813,-0.449474,0.217148,0.935004,74.462250,-186.264008,-53.668705
7819,-0.429706,0.227643,0.939885,75.821121,-203.990494,-58.661442
7825,-0.419455,0.274258,0.948671,75.989082,-218.861816,-63.638905
7831,-0.392365,0.262299,0.854221,77.180000,-228.923630,-68.280472
7836,-0.333059,0.249608,0.857394,78.172447,-232.481140,-72.815155
7842,-0.273021,0.262787,0.875942,77.699127,-229.946609,-74.800034
7848,-0.193702,0.262787,0.806142,78.370934,-219.777924,-74.891647
7854,-0.185404,0.284020,0.825666,78.737366,-208.067123,-73.196854
7860,-0.209078,0.295247,0.844459,78.920593,-199.547424,-70.891350
7865,-0.188577,0.323801,0.832256,78.890053,-195.806686,-66.967392
7871,-0.126098,0.338201,0.773682,79.073280,-193.073669,-59.547001
7877,-0.116336,0.339665,0.678988,80.203125,-185.424240,-51.592216
7883,-0.133176,0.346499,0.624563,81.607811,-172.904236,-44.416115
7889,-0.178327,0.344302,0.648481,82.844543,-160.811737,-38.598892
7895,-0.206393,0.365047,0.700953,82.859810,-152.689011,-33.911526
7900,-0.199315,0.385548,0.758550,81.592545,-150.826279,-29.483717
7906,-0.166124,0.394822,0.760503,80.172592,-154.811295,-26.094154
7912,-0.104377,0.384084,0.656290,80.630638,-156.215973,-23.742836
7918,-0.100472,0.402876,0.653850,77.332687,-154.811295,-23.300058
7924,-0.037750,0.435336,0.644088,79.073280,-147.681015,-25.025375
7929,0.043277,0.480242,0.684113,78.355667,-137.588654,-23.773373
7935,0.095262,0.519535,0.701197,75.714249,-121.373726,-19.834154
7941,0.104536,0.539304,0.708275,72.630058,-101.860840,-14.536053
7947,0.150175,0.537351,0.720721,68.553413,-82.500626,-8.123366
7952,0.159693,0.532958,0.763431,63.667561,-67.323936,0.075711
7958,0.130162,0.528565,0.751717,57.361752,-53.948910,7.999959
7963,0.093065,0.489516,0.760259,50.048237,-39.642517,13.924059
7969,0.093553,0.474141,0.773438,42.505695,-25.824701,18.397669
7974,0.074273,0.475849,0.801260,34.169201,-10.449523,22.260551
7980,0.048159,0.490981,0.809558,25.786907,2.452190,25.497431
7985,0.055480,0.510993,0.773926,18.076414,11.582633,28.352602
7991,0.096482,0.542965,0.724626,11.419436,22.972786,31.849043
7996,0.112834,0.557120,0.672398,5.510604,38.760208,35.834068
8001,0.131382,0.576889,0.624075,-0.153935,57.708168,39.773293
8007,0.108441,0.566882,0.584538,-4.764962,80.015152,43.972073
8012,0.095262,0.552239,0.536458,-8.994282,111.315170,48.155586
8018,0.074029,0.559073,0.535238,-13.147259,143.286987,52.155880
8024,0.015699,0.551019,0.631641,-18.078920,168.601837,56.308857
8029,-0.018713,0.517827,0.629200,-23.438093,184.969452,59.912178
8035,-0.149040,0.472920,0.764652,-29.499607,190.191208,62.202427
8041,-0.276438,0.469748,0.829327,-38.477371,187.183365,60.675594
8046,-0.316219,0.431431,0.824934,-47.424595,185.824478,57.286034
8052,-0.276193,0.372857,0.777587,-55.012939,186.129852,53.804859
8058,-0.258621,0.343814,0.720721,-60.143089,187.885696,51.499348
8064,-0.272777,0.342838,0.718525,-63.212009,190.511841,50.171005
8069,-0.253740,0.355773,0.770509,-65.990845,191.763824,49.529732
8075,-0.285224,0.365291,0.795403,-68.464310,191.763824,48.888466
8081,-0.298403,0.366023,0.762455,-69.823181,194.466339,47.911293
8086,-0.251300,0.344546,0.734877,-69.304062,196.161118,48.598370
8092,-0.279122,0.332832,0.788325,-68.937630,192.496719,48.796856
8098,-0.298159,0.329415,0.796379,-68.479576,185.458023,46.781441
8104,-0.320124,0.318920,0.819565,-67.960457,175.045059,42.979633
8109,-0.318415,0.317212,0.821029,-67.594025,161.960129,39.101486
8115,-0.345262,0.326730,0.851048,-67.303925,149.882904,34.704216
8121,-0.357953,0.355041,0.843726,-67.120705,139.927963,30.826065
8127,-0.334035,0.360654,0.838357,-66.357285,132.064789,28.062504
8132,-0.351363,0.323069,0.870329,-67.059624,124.415367,25.680651
8138,-0.401151,0.314527,0.962338,-68.296356,108.841705,23.222454
8144,-0.395293,0.283532,0.863739,-69.075043,103.940582,20.535233
8149,-0.371132,0.291586,0.776611,-66.723724,108.566872,18.901524
8155,-0.380406,0.295735,0.813951,-63.089863,113.544342,19.649672
8161,-0.408228,0.276454,0.827619,-60.601135,118.399658,20.611574
8167,-0.383579,0.280603,0.810535,-59.364403,127.148392,20.993280
8172,-0.324761,0.325022,0.843482,-57.593281,134.797821,24.489723
8178,-0.364054,0.324778,0.870085,-59.623962,139.210358,26.886845
8184,-0.378698,0.339909,0.945254,-60.005669,137.011703,27.970896
8189,-0.410669,0.361142,0.991625,-62.876110,131.728882,27.864016
8195,-0.470951,0.357237,0.915723,-65.090012,126.415512,25.405821
8201,-0.438736,0.346987,0.874966,-66.723724,124.354301,21.787233
8207,-0.439956,0.338933,0.835184,-67.013824,122.949623,17.237280
8212,-0.454355,0.341374,0.868376,-68.189484,120.613564,13.298059
8218,-0.462409,0.343326,0.902788,-71.090454,117.422501,10.045910
8224,-0.462653,0.354064,0.931831,-75.732025,115.590302,8.290056
8229,-0.424580,0.349915,0.931099,-81.228600,115.483414,7.999959
8235,-0.425801,0.346987,0.932075,-87.229042,116.323166,8.213715
8241,-0.455332,0.312819,0.918652,-92.969933,118.857712,8.106836
8246,-0.469975,0.292806,0.953308,-98.542862,121.239555,7.587714
8252,-0.506828,0.278163,0.939153,-102.970673,121.407509,5.984542
8258,-0.494381,0.278163,0.866912,-104.848671,122.613716,5.083713
8264,-0.498774,0.268644,0.793939,-103.611938,127.392685,4.137079
8269,-0.508292,0.255465,0.794915,-99.764328,128.659958,4.045469
8275,-0.543192,0.230816,0.790766,-94.771591,126.354446,4.014932
8280,-0.571015,0.209583,0.774170,-88.893295,124.247421,3.434737
8286,-0.596885,0.190058,0.776122,-82.389000,121.636543,2.808736
8292,-0.638130,0.175903,0.771729,-75.930504,118.567612,2.060590
8297,-0.639107,0.173950,0.737561,-68.754410,114.093994,2.488102
8303,-0.618362,0.177855,0.708031,-60.937042,111.925911,3.801176
8309,-0.616653,0.164676,0.710471,-54.478546,113.437469,5.923470
8314,-0.613725,0.170533,0.729752,-50.447716,117.422501,8.106836
8320,-0.613725,0.184689,0.755622,-49.378937,121.331169,10.503959
8326,-0.619338,0.177611,0.815172,-51.623375,124.369568,12.610985
8331,-0.611528,0.186641,0.792962,-57.211567,130.125732,14.824888
8337,-0.591027,0.205678,0.791010,-64.769379,138.981323,16.870840
8343,-0.594932,0.208606,0.776611,-73.121147,150.127197,18.993135
8349,-0.624219,0.198600,0.755866,-80.999580,158.692703,20.565771
8354,-0.673031,0.177367,0.771729,-88.465782,162.189148,20.336746
8360,-0.704026,0.152229,0.742931,-93.763885,160.036301,19.680208
8366,-0.722330,0.146616,0.712668,-96.588516,156.753616,19.512255
8371,-0.744539,0.133925,0.666541,-97.107651,153.501480,18.809916
8377,-0.752593,0.110007,0.608211,-95.443398,150.096649,18.733574
8383,-0.742831,0.089995,0.562328,-91.977493,145.592499,19.481720
8389,-0.751129,0.094143,0.525232,-86.236610,142.462509,21.512403
8394,-0.758451,0.101465,0.495457,-79.823929,142.493042,23.573626
8400,-0.762844,0.070226,0.495701,-73.838753,144.661133,25.695917
8406,-0.763332,0.067053,0.493260,-68.555923,145.516159,27.528114
8412,-0.743075,0.085601,0.510344,-64.967873,148.524017,30.261139
8417,-0.752593,0.089995,0.517178,-62.738697,153.883194,32.872021
8423,-0.756986,0.086578,0.499850,-62.265377,160.585968,35.009583
8429,-0.760891,0.094876,0.481301,-62.799770,167.258224,37.284557
8434,-0.767237,0.096096,0.472515,-63.639530,172.159348,38.567097
8440,-0.820197,0.084137,0.476908,-64.845726,171.792892,38.292263
8446,-0.858514,0.088286,0.473736,-65.883972,166.143646,36.628025
8452,-0.873402,0.100977,0.416382,-65.044205,158.540009,34.383579
8457,-0.893414,0.109275,0.360981,-61.975281,150.310410,32.337627
8463,-0.908302,0.109763,0.314366,-56.784061,141.393723,29.971043
8469,-0.892682,0.106834,0.307289,-51.577568,131.805237,27.650261
8475,-0.873158,0.115132,0.340480,-47.531471,124.354301,25.512697
8480,-0.864127,0.105126,0.370255,-45.760349,119.987556,24.138552
8486,-0.861687,0.107811,0.373916,-45.699276,117.804199,23.329332
8492,-0.851192,0.118061,0.334623,-45.943569,117.544632,23.039234
8497,-0.841186,0.132705,0.294109,-45.592396,119.575325,23.298796
8503,-0.833864,0.124651,0.255548,-44.905323,122.903816,23.649967
8509,-0.839966,0.096584,0.224797,-44.325130,126.858307,23.466747
8515,-0.847776,0.092923,0.233827,-44.294594,131.637283,23.802649
8520,-0.845823,0.108543,0.214791,-45.058002,136.339905,24.963039
8526,-0.819221,0.137342,0.228214,-46.676449,139.912704,27.192211
8532,-0.772118,0.158819,0.293133,-51.516495,149.898163,29.574066
8538,-0.772850,0.137098,0.308997,-58.967426,163.288452,31.146700
8543,-0.810679,0.144419,0.307533,-66.555771,177.167358,31.238310
8549,-0.848996,0.151497,0.271656,-72.724167,186.603165,29.955772
8555,-0.894879,0.163700,0.234071,-75.548798,186.710037,27.940357
8560,-0.947351,0.152961,0.139377,-74.128853,179.900360,24.535528
8566,-0.958090,0.135145,0.074214,-69.472015,170.724121,20.199329
8572,-0.975173,0.119525,0.038337,-63.349430,161.868515,16.076889
8578,-0.988353,0.143443,0.043219,-56.768795,152.631195,12.168204
8583,-1.007877,0.136854,0.019301,-49.287323,142.401428,8.610690
8589,-1.024961,0.108543,-0.004373,-41.561565,131.041824,4.656201
8595,-1.014467,0.102441,0.034188,-34.843513,119.132545,0.991809
8600,-1.000555,0.102930,0.057130,-30.736341,111.101418,-2.550437
8606,-0.993966,0.083161,0.047123,-28.049120,106.978973,-5.298731
8612,-1.004948,0.079744,0.090322,-26.949800,105.192581,-6.474390
8618,-1.001288,0.078280,0.082756,-27.316240,104.719261,-6.245366
8623,-0.979567,0.090727,0.060059,-27.972780,107.131660,-4.413170
8629,-0.977126,0.112204,0.077875,-29.927122,112.521370,-1.725949
8635,-0.931731,0.113180,0.111066,-33.667850,122.751122,2.060590
8640,-0.931975,0.099025,0.099352,-38.217812,136.782684,5.373811
8646,-0.967120,0.092679,0.091542,-43.149471,150.707382,7.068592
8652,-1.012758,0.100733,0.089589,-46.951275,157.837677,7.770934
8657,-1.046682,0.099025,0.074946,-49.210983,158.448410,7.832007
8663,-1.079630,0.094632,-0.000712,-48.615520,155.211548,6.457860
8669,-1.121364,0.079012,-0.052452,-45.271759,148.539276,4.076005
8674,-1.160657,0.089750,-0.087108,-39.744637,137.515579,0.701711
8680,-1.190432,0.077792,-0.146658,-31.469219,122.705330,-3.161169
8686,-1.189456,0.081941,-0.177409,-22.369312,106.505661,-7.298878
8692,-1.173348,0.081453,-0.154712,-14.506138,90.993065,-10.810587
8697,-1.141376,0.073155,-0.110049,-9.650819,80.641159,-13.894784
8703,-1.119900,0.056315,-0.100043,-7.085744,75.037689,-15.482686
8709,-1.094761,0.041183,-0.086376,-6.505548,71.113739,-14.871955
8715,-1.033747,0.051189,-0.051964,-8.795793,73.678802,-12.413758
8720,-0.978346,0.046308,-0.002664,-14.948918,86.580521,-7.619513
8726,-0.962238,0.071202,0.022718,-23.346485,106.582001,-1.787022
8732,-0.983960,0.070470,-0.021457,-31.484486,128.125580,3.740103
8738,-1.037408,0.059243,-0.091989,-36.950539,143.729767,7.404494
8743,-1.090613,0.073887,-0.122496,-38.584248,147.531570,9.832153
8749,-1.133079,0.065345,-0.157641,-37.194832,141.958664,10.442886
8755,-1.162853,0.058511,-0.260633,-32.247902,131.728882,8.809178
8761,-1.184331,0.056559,-0.327016,-23.926680,118.537079,7.053324
8766,-1.183110,0.064124,-0.337511,-15.574918,104.077995,4.702005
8772,-1.178717,0.061196,-0.351666,-7.604867,86.794281,2.686590
8778,-1.177009,0.077548,-0.345565,-1.146375,71.052666,0.671174
8783,-1.151627,0.082185,-0.354351,3.999042,56.181339,-1.267900
8789,-1.143817,0.079988,-0.353374,7.846654,42.195576,-3.054291
8794,-1.131370,0.075351,-0.359964,10.518606,29.034300,-4.825414
8800,-1.101595,0.077548,-0.386322,12.915729,20.453516,-6.260634
8806,-1.076457,0.081941,-0.388763,14.274608,17.689955,-6.825561
8811,-1.067427,0.074131,-0.368262,14.457829,16.590635,-6.535463
8817,-1.082559,0.076815,-0.358500,14.488364,14.392001,-6.107951
8822,-1.114530,0.065833,-0.351422,14.579974,9.658828,-5.634634
8828,-1.132102,0.059487,-0.355571,14.732656,1.917800,-5.649901
8834,-1.146502,0.050701,-0.363137,15.877779,-8.174546,-6.260634
8839,-1.146258,0.056803,-0.393888,18.427586,-18.221088,-6.718683
8845,-1.154067,0.069006,-0.409996,21.343830,-28.817289,-7.680585
8851,-1.158460,0.059487,-0.409752,24.397491,-39.611977,-8.611953
8856,-1.157484,0.054606,-0.396329,27.038906,-50.849445,-9.436441
8862,-1.161633,0.048261,-0.392180,29.115395,-62.377014,-10.215124
8868,-1.162853,0.045088,-0.376072,30.382664,-73.980919,-10.489952
8874,-1.153335,0.049725,-0.381197,31.481983,-83.141899,-10.749515
8880,-1.149919,0.047773,-0.390227,33.008812,-91.600540,-11.360247
8885,-1.160901,0.046308,-0.361184,33.970715,-99.784340,-12.245808
8891,-1.158949,0.040695,-0.341904,34.902084,-111.266106,-13.711564
8897,-1.171396,0.033373,-0.337999,36.245689,-124.473190,-16.246101
8903,-1.174080,0.036302,-0.318230,38.032085,-138.932281,-19.376102
8909,-1.178961,0.042159,-0.314569,40.307060,-154.170029,-22.933617
8915,-1.176277,0.034105,-0.308956,42.353012,-168.232147,-26.109425
8921,-1.172128,0.027028,-0.288699,44.429501,-181.714050,-28.643961
8927,-1.166026,0.023611,-0.279669,46.047943,-193.638580,-30.140255
8932,-1.159925,0.027760,-0.270151,47.513695,-201.593353,-30.598305
8938,-1.127465,0.021414,-0.272592,48.292381,-206.326553,-29.743279
8944,-1.109405,0.027272,-0.228417,48.613014,-210.754349,-27.926352
8950,-1.104768,0.027516,-0.161057,48.750431,-214.663040,-26.536936
8956,-1.079874,0.032641,-0.145438,48.506138,-219.503082,-25.559763
8962,-1.048635,0.037278,-0.119812,49.040527,-223.961426,-24.811619
8968,-1.014467,0.033129,-0.110049,49.742870,-226.007370,-24.613131
8974,-1.004704,0.028736,-0.058553,50.200916,-226.037903,-24.277227
8980,-1.010562,0.022391,-0.009010,49.376431,-225.335571,-24.674204
8986,-1.028378,0.014581,0.080559,47.880138,-226.251678,-25.742985
8991,-1.006413,0.034105,0.106673,46.109016,-226.114258,-26.582741
8997,-0.969316,0.040939,0.102524,44.918083,-219.243530,-25.712446
9003,-0.928070,0.047529,0.146211,42.917938,-208.586258,-23.086300
9009,-0.922701,0.038987,0.170128,39.650524,-197.333511,-20.338007
9015,-0.937833,0.022879,0.183063,36.764812,-184.309647,-18.001955
9020,-0.941982,0.028736,0.221136,33.558472,-169.407791,-16.444590
9026,-0.935392,0.030689,0.248715,30.275787,-156.048035,-14.765077
9032,-0.926362,0.034594,0.287764,27.955004,-144.657883,-13.360394
9038,-0.913427,0.054362,0.329010,25.603685,-135.741196,-11.650345
9044,-0.919040,0.048017,0.346582,23.038612,-129.099487,-10.749515
9049,-0.923433,0.030445,0.364886,21.038464,-125.053375,-10.581562
9055,-0.921725,0.035326,0.359517,19.084124,-120.595039,-10.627368
9061,-0.936612,0.041427,0.369523,18.122219,-115.816063,-10.092978
9067,-0.965411,0.022391,0.370743,18.183292,-114.380844,-9.940294
9073,-0.995674,0.005551,0.382702,18.213829,-118.213188,-10.948002
9078,-0.982983,0.000670,0.380018,20.519344,-125.068649,-11.665613
9084,-0.969072,0.010188,0.354880,23.588270,-131.603485,-11.925173
9090,-0.961994,0.019462,0.336331,28.199299,-136.260315,-12.306881
9096,-0.968340,0.019706,0.330474,33.298908,-140.550705,-13.161905
9102,-0.970780,0.015313,0.363910,36.932762,-147.696274,-13.940589
9107,-0.948327,0.029468,0.398566,40.994133,-156.918320,-15.085711
9113,-0.929535,0.029712,0.409793,43.574478,-164.781494,-16.719419
9119,-0.901468,0.031421,0.393685,46.292233,-170.339157,-18.276785
9125,-0.893414,0.019950,0.415894,48.750431,-174.751694,-20.536495
9131,-0.881944,0.026784,0.426388,50.796383,-180.324631,-21.971714
9137,-0.886093,0.022635,0.429561,52.521702,-186.477753,-24.002398
9142,-0.833620,0.036302,0.480813,54.140141,-189.653564,-24.414644
9148,-0.818977,0.025563,0.482766,53.025555,-188.233612,-23.300058
9154,-0.768213,0.025075,0.502290,52.017845,-183.576782,-21.559469
9160,-0.756010,0.053142,0.555739,48.903114,-176.690781,-17.818737
9166,-0.761867,0.027272,0.526208,47.620571,-167.514526,-15.177321
9171,-0.783833,0.036058,0.562572,46.536526,-163.117249,-13.055028
9177,-0.817268,0.033861,0.492284,48.994720,-166.186172,-12.658051
9183,-0.807506,0.061928,0.516690,52.109459,-175.041809,-12.856539
9189,-0.802137,0.049725,0.477640,57.270142,-186.096054,-14.047466
9195,-0.795791,0.063636,0.559888,60.216927,-197.806839,-16.429323
9200,-0.772850,0.050945,0.609187,62.736195,-208.097672,-19.879957
9206,-0.723550,0.059487,0.610408,64.369896,-216.037170,-21.757959
9212,-0.697436,0.062904,0.617973,66.247902,-220.678741,-22.704592
9218,-0.653994,0.069006,0.667761,66.385315,-221.518509,-23.254253
9224,-0.611528,0.074375,0.693143,65.774582,-218.586990,-23.269522
9230,-0.575896,0.082673,0.712912,64.095070,-211.945267,-22.277081
9235,-0.542704,0.081941,0.717305,63.682827,-201.730774,-21.116690
9241,-0.512685,0.112448,0.772706,61.117752,-191.455215,-18.124102
9247,-0.504875,0.115621,0.754890,58.812237,-181.454468,-16.078152
9253,-0.493893,0.115376,0.781248,56.445652,-172.003403,-13.955857
9259,-0.486571,0.122454,0.787349,54.170673,-165.392227,-12.245808
9264,-0.475832,0.119769,0.809314,52.094185,-161.544632,-10.520490
9270,-0.486571,0.110495,0.814439,49.162674,-159.101700,-9.222684
9276,-0.509268,0.103174,0.864227,46.414383,-159.239105,-9.146343
9282,-0.537091,0.080964,0.911574,43.895111,-163.514236,-9.039464
9287,-0.559300,0.051922,0.969904,41.956036,-170.125412,-9.634929
9293,-0.552222,0.042403,0.959165,40.933060,-175.057068,-10.077709
9299,-0.537091,0.051922,0.942326,40.917793,-175.820496,-9.696001
9305,-0.521715,0.052898,0.956481,41.543793,-172.721024,-8.917318
9310,-0.464606,0.061928,0.929146,41.971302,-166.415207,-7.619513
9316,-0.413842,0.101221,0.910354,42.673645,-159.513947,-5.894195
9322,-0.379674,0.132216,0.865203,44.704327,-150.536194,-3.970389
9328,-0.344285,0.148812,0.821761,47.025116,-140.642319,-2.000778
9333,-0.324517,0.154670,0.799308,49.574921,-129.756027,-0.718241
9339,-0.334035,0.163944,0.824446,50.475746,-121.098900,-0.229655
9345,-0.323541,0.163944,0.856906,49.910820,-116.671089,-0.199119
9350,-0.317927,0.171510,0.857638,47.574772,-113.815910,-0.458680
9356,-0.314266,0.177611,0.837137,44.902817,-111.678345,-0.840387
9362,-0.307921,0.191278,0.820053,41.513256,-111.159225,-1.023607
9368,-0.290105,0.191034,0.831279,37.650379,-110.472160,-1.206827
9373,-0.272533,0.199088,0.838845,32.932468,-110.502701,-0.702973
9379,-0.249835,0.214952,0.837869,28.168760,-110.609573,0.182589
9385,-0.227870,0.216660,0.835917,23.511930,-109.708748,0.930735
9390,-0.215911,0.212755,0.840065,18.931440,-107.616982,1.098687
9396,-0.202732,0.223250,0.824690,15.160170,-105.372543,1.251370
9402,-0.184184,0.232768,0.810291,12.808851,-103.677765,0.839126
9407,-0.180523,0.232768,0.795403,11.999631,-103.280792,-0.168582
9413,-0.182964,0.232524,0.788325,11.969094,-104.945038,-1.344241
9419,-0.188089,0.231304,0.819809,12.610364,-108.548347,-4.077267
9424,-0.166368,0.232524,0.872525,12.732510,-113.083038,-6.611805
9430,-0.166124,0.228375,0.866912,12.442412,-117.083328,-9.497514
9436,-0.160022,0.207142,0.869108,12.518753,-119.251427,-12.932880
9442,-0.160998,0.202505,0.872037,12.457681,-121.144707,-15.742249
9448,-0.154897,0.189570,0.872525,12.976803,-124.259430,-18.948593
9453,-0.145623,0.188350,0.858614,14.152462,-128.076508,-22.277081
9459,-0.119753,0.210315,0.869352,15.190706,-128.778854,-23.758106
9465,-0.136349,0.198844,0.874722,14.457829,-129.236908,-26.460596
9471,-0.126830,0.209583,0.891073,12.930998,-130.382019,-28.460741
9477,-0.139277,0.202749,0.895711,11.007192,-132.305817,-29.239428
9482,-0.108770,0.213976,0.875698,8.594801,-133.908997,-29.193621
9488,-0.107306,0.209827,0.885216,5.678555,-133.863190,-29.025671
9494,-0.074602,0.233012,0.819809,3.632603,-133.176117,-27.773670
9500,-0.055566,0.239602,0.817124,1.983626,-129.954514,-25.926205
9505,-0.040190,0.253025,0.801504,0.609480,-124.503723,-23.162642
9511,-0.033357,0.247655,0.820541,-1.680766,-120.091179,-20.246397
9517,-0.018225,0.236185,0.812487,-3.635108,-115.571770,-16.933174
9523,-0.016517,0.216904,0.786617,-4.581743,-109.785088,-13.940589
9528,-0.026035,0.197136,0.809558,-4.719157,-103.845718,-12.093124
9534,-0.006022,0.225690,0.837625,-4.688621,-99.036201,-10.001368
9540,0.077690,0.229107,0.851048,-4.642816,-87.584976,-7.527902
9546,0.183366,0.238625,0.836893,-4.016816,-65.048965,-4.917023
9551,0.245357,0.251560,0.823714,-2.154083,-33.367241,-1.283168
9557,0.238523,0.243995,0.862763,0.670553,-6.128594,2.732395
9562,0.175556,0.230816,0.901324,2.777578,7.750290,5.160055
9567,0.105268,0.211535,0.886925,4.854067,10.040535,5.602835
9572,0.051087,0.200308,0.853489,6.991629,6.895267,4.137079
9578,0.009598,0.200064,0.803213,8.671143,2.009410,1.159760
9583,-0.011635,0.211291,0.786617,10.091094,-2.754300,-2.168730
9588,-0.003582,0.226911,0.775146,11.068264,-7.655425,-4.855950
9594,-0.008463,0.223250,0.781004,12.045436,-11.579377,-7.482098
9600,0.011306,0.215684,0.806630,12.320266,-14.571963,-8.718830
9605,0.043277,0.223494,0.833964,12.060704,-15.289575,-8.474538
9611,0.049379,0.215196,0.842994,11.205680,-13.686402,-7.192000
9616,0.052552,0.210803,0.856173,9.984216,-11.747329,-5.558292
9622,0.056701,0.218369,0.855685,8.778020,-9.915133,-3.252779
9627,0.054992,0.217148,0.845923,7.739776,-8.189815,-1.283168
9632,0.055236,0.222274,0.831524,6.579385,-6.693521,0.487955
9638,0.064266,0.244239,0.844214,5.602214,-5.365179,1.831565
9643,0.064266,0.239602,0.839577,4.334945,-4.235325,3.205712
9648,0.071100,0.252537,0.843482,2.701236,-3.410837,3.831712
9654,0.070124,0.247411,0.842018,1.098065,-2.861178,4.305030
9659,0.062314,0.267180,0.820541,-0.184472,-2.097763,4.091273
9664,0.062070,0.258638,0.805409,-0.734131,-1.044250,3.495810
9670,0.060117,0.249852,0.810291,-1.283790,-0.677811,2.839273
9675,0.054748,0.257906,0.819565,-1.925058,-0.387713,1.572004
9680,0.075005,0.250584,0.822249,-2.489985,0.650531,0.289467
9686,0.070368,0.259858,0.828839,-3.268669,1.612434,-0.428143
9691,0.066463,0.251804,0.853001,-4.261108,2.223166,-1.557997
9697,0.052796,0.251072,0.830791,-5.665792,3.322484,-2.428291
9702,0.071588,0.256442,0.811999,-6.795646,5.124143,-3.115364
9707,0.073052,0.256442,0.813463,-7.879695,8.238876,-3.069559
9713,0.069392,0.260835,0.817124,-9.009550,11.460487,-3.191706
9718,0.077201,0.253269,0.825666,-10.261551,14.010294,-2.748925
9724,0.063046,0.245215,0.821517,-11.986868,15.995172,-2.260339
9729,0.062802,0.245947,0.809070,-13.483161,19.949661,-1.222095
9735,0.074517,0.248388,0.795891,-14.948918,26.621910,0.793321
9740,0.070612,0.236917,0.796379,-15.971895,33.568985,2.778200
9746,0.070368,0.221541,0.793451,-16.521553,40.470257,4.579859
9751,0.061094,0.200308,0.819077,-16.964334,46.867676,5.969274
9757,0.035956,0.161015,0.883020,-17.101748,48.654064,5.755518
9762,0.009353,0.146372,0.913527,-16.613163,46.134796,4.289762
9768,0.005693,0.144663,0.877894,-14.948918,42.729965,2.060590
9773,0.014235,0.143687,0.857638,-12.170088,41.279476,-0.199119
9779,0.005937,0.173706,0.862763,-9.009550,39.798450,-2.321413
9784,-0.004802,0.194939,0.861299,-6.673500,39.584698,-3.939853
9790,0.002276,0.196403,0.823714,-4.062621,41.096256,-4.840682
9795,-0.001141,0.189082,0.801504,-2.093010,44.119381,-5.329268
9801,-0.017249,0.173218,0.780760,-0.398228,46.608116,-4.489511
9806,0.033515,0.206654,0.778319,-0.779936,57.280655,-1.054144
9812,0.087696,0.265228,0.769289,-3.238132,77.862320,4.320298
9817,0.138704,0.295979,0.800284,-7.528525,105.757515,11.343716
9823,0.167259,0.292074,0.835917,-12.964039,138.920258,20.336746
9828,0.140412,0.292562,0.847387,-19.132433,170.220276,28.413675
9834,0.134311,0.279871,0.839822,-24.964924,197.382584,35.391289
9839,0.107220,0.261323,0.840065,-30.873755,222.651611,40.811535
9845,0.076957,0.253757,0.845923,-36.721512,246.103729,43.239197
9851,0.046206,0.265228,0.848363,-42.676151,265.463928,44.201096
9856,-0.018469,0.273282,0.833232,-47.714687,281.419281,43.117046
9862,-0.080704,0.281091,0.826886,-51.547035,290.961975,39.849636
9868,-0.192238,0.255953,0.833476,-53.150208,288.732819,33.727047
9874,-0.284736,0.235697,0.870817,-53.211277,274.685974,26.550943
9879,-0.376989,0.216416,0.872037,-52.737961,250.409378,17.970158
9885,-0.413354,0.230816,0.818588,-50.249229,224.132645,9.389374
9891,-0.437759,0.224226,0.770997,-46.325275,200.359909,2.228541
9896,-0.492428,0.219589,0.765628,-42.248638,176.923050,-4.657462
9902,-0.514149,0.202749,0.764652,-37.316978,153.425140,-11.024343
9908,-0.519763,0.197136,0.820541,-33.423557,134.874161,-15.742249
9914,-0.516590,0.181760,0.810046,-31.912003,124.384834,-17.681324
9919,-0.503167,0.182248,0.796623,-31.179119,118.613419,-16.276640
9925,-0.504875,0.154426,0.799796,-30.629465,116.323166,-13.390929
9931,-0.477785,0.140270,0.831524,-32.049412,115.361267,-9.589124
9937,-0.451671,0.132705,0.887169,-36.385612,112.674049,-4.718536
9943,-0.436783,0.135145,0.860322,-41.454689,109.345558,0.029906
9948,-0.416038,0.111716,0.833232,-46.905472,109.895218,3.969127
9954,-0.458504,0.142711,0.896199,-53.577717,108.215706,7.221275
9959,-0.460457,0.097072,0.850804,-59.379669,103.955849,8.625958
9965,-0.485595,0.086334,0.797600,-63.150944,102.459549,9.358837
9971,-0.509024,0.038254,0.795403,-66.204605,105.986534,9.358837
9976,-0.524888,0.076083,0.853489,-68.296356,111.620537,9.557325
9982,-0.516346,0.096096,0.832500,-69.945335,117.254547,11.496399
9988,-0.583706,0.055338,0.718769,-67.426071,119.147804,13.466009
9993,-0.603718,0.038742,0.662392,-61.807331,113.009949,15.511963
9999,-0.584926,0.035814,0.652874,-55.730545,101.635063,18.580891
10005,-0.592004,0.045576,0.636766,-48.966690,90.153305,20.642113
10011,-0.598105,0.089018,0.696804,-43.714397,83.084084,20.275671
10016,-0.580533,0.127579,0.702661,-39.454540,76.411835,19.802355
10022,-0.548805,0.125139,0.673618,-34.660294,77.343201,18.794647
10028,-0.559788,0.108787,0.706322,-30.736341,80.381592,16.931913
10034,-0.573699,0.128067,0.714864,-27.407850,81.068665,15.344011
10039,-0.598349,0.119281,0.730728,-26.201656,79.175392,14.824888
10045,-0.610796,0.109275,0.737561,-26.461216,79.587639,13.130108
10051,-0.591515,0.113424,0.725603,-27.316240,83.710083,11.633814
10056,-0.608111,0.108787,0.748788,-28.507168,84.061256,9.954301
10062,-0.640571,0.078768,0.750985,-29.484341,80.320518,6.870104
10068,-0.672298,0.081453,0.744883,-28.278145,72.701637,3.175175
10073,-0.674495,0.096096,0.718037,-25.484045,65.617149,-0.458680
10079,-0.682793,0.080720,0.684601,-22.583069,60.044216,-3.115364
10085,-0.699877,0.057047,0.699489,-19.727894,54.486557,-5.787317
10091,-0.693287,0.044356,0.673130,-16.491016,48.058605,-7.604244
10096,-0.711348,0.032641,0.667761,-12.796087,42.165039,-8.138635
10102,-0.708663,0.028492,0.668249,-9.498136,35.752354,-7.924879
10108,-0.693775,0.026052,0.634813,-6.139109,29.431274,-6.932439
10113,-0.687430,0.026784,0.614801,-2.657937,22.804836,-5.527756
10119,-0.706466,0.022147,0.611140,0.227772,17.659416,-4.535316
10124,-0.708419,0.027028,0.607967,2.899724,13.598049,-3.069559
10130,-0.710615,0.018242,0.631397,4.716652,8.956487,-2.092388
10135,-0.703050,0.034105,0.629932,5.754897,4.543947,-0.794582
10141,-0.716229,0.043380,0.616753,7.342800,-0.402982,0.075711
10146,-0.714764,0.053874,0.606259,8.961240,-5.655277,0.335272
10152,-0.719890,0.053630,0.608211,10.030021,-10.968645,0.564296
10158,-0.709883,0.048505,0.647992,10.289581,-16.236208,0.716979
10163,-0.710127,0.055338,0.653362,9.602508,-21.228943,0.793321
10169,-0.714764,0.059975,0.664832,9.052850,-26.328556,0.869662
10174,-0.727455,0.049725,0.669225,8.839093,-31.107534,0.640638
10180,-0.726723,0.038987,0.669958,9.465094,-36.359829,0.060442
10185,-0.719401,0.047040,0.670202,11.022460,-41.917488,-0.305997
10191,-0.703538,0.048993,0.669469,13.312705,-47.658371,-0.855656
10197,-0.697436,0.046552,0.670690,15.954121,-53.399250,-1.405314
10203,-0.694264,0.049725,0.688262,18.397049,-59.277546,-2.413022
10208,-0.672787,0.052654,0.702661,20.626221,-64.850479,-3.298584
10214,-0.645452,0.064613,0.709739,22.366806,-69.614189,-3.573413
10220,-0.619094,0.075351,0.700221,24.321150,-72.286133,-3.298584
10225,-0.625683,0.099757,0.804921,25.924320,-79.416435,-2.764193
10231,-0.619094,0.081453,0.688994,27.283201,-85.890198,-2.871071
10237,-0.613969,0.083649,0.668249,29.878811,-86.088684,-3.176437
10243,-0.619094,0.092191,0.685577,32.230129,-86.623077,-3.298584
10248,-0.606403,0.090239,0.707298,34.841007,-89.386635,-2.932144
10254,-0.594932,0.078524,0.739026,36.505253,-92.516640,-2.565705
10260,-0.588587,0.075839,0.754890,37.589302,-94.348831,-1.664876
10266,-0.576140,0.085601,0.759771,38.337452,-97.646782,-1.176290
10271,-0.560520,0.090239,0.731704,39.482567,-96.791763,-0.718241
10277,-0.549294,0.098048,0.757574,40.062767,-97.234543,-0.244924
10283,-0.551246,0.107567,0.780027,39.314617,-97.356682,0.304735
10288,-0.536359,0.115621,0.772462,38.169498,-96.974983,0.472686
10294,-0.515126,0.130020,0.781736,36.489986,-96.883369,0.258930
10300,-0.503655,0.141247,0.771974,34.428764,-96.089417,0.014637
10305,-0.498286,0.153449,0.764896,32.733982,-92.486107,-0.000631
10311,-0.498286,0.155402,0.784176,30.794909,-90.577560,-0.244924
10317,-0.493404,0.151253,0.819809,28.413054,-92.592979,-1.008339
10322,-0.493404,0.153938,0.824934,25.909052,-95.539764,-2.107656
10328,-0.483398,0.161503,0.834208,23.343979,-97.860542,-3.283315
10334,-0.453623,0.158819,0.833964,20.962122,-101.189026,-5.054439
10340,-0.449718,0.159795,0.838601,19.023050,-102.776939,-6.566000
10345,-0.409205,0.175415,0.811999,17.358805,-102.547905,-8.260780
10351,-0.404080,0.166873,0.811267,16.030462,-101.112686,-9.512783
10357,-0.400663,0.161747,0.810779,15.068560,-99.616394,-11.131222
10363,-0.424580,0.157842,0.826642,14.564706,-101.204292,-12.932880
10369,-0.431902,0.132460,0.833232,13.984509,-103.631958,-15.391077
10375,-0.427997,0.127579,0.810291,14.213535,-106.487129,-16.933174
10381,-0.406276,0.145151,0.793207,15.511339,-105.525223,-17.604982
10387,-0.395293,0.141979,0.783444,17.343536,-103.372398,-17.375957
10392,-0.381138,0.140270,0.785397,19.496365,-102.120392,-16.261372
10398,-0.370888,0.141247,0.805653,21.084270,-101.463860,-15.009370
10404,-0.384799,0.144419,0.802481,22.626368,-100.166054,-13.787906
10410,-0.362102,0.141002,0.825910,23.634075,-100.257660,-12.719125
10416,-0.356244,0.141735,0.809802,24.275345,-101.234840,-11.680881
10422,-0.355512,0.145884,0.817124,24.580709,-102.486839,-11.329709
10428,-0.338916,0.150521,0.803701,24.977686,-105.280937,-11.100685
10434,-0.343309,0.160039,0.822493,25.374660,-108.884254,-10.856392
10440,-0.320856,0.171998,0.813463,25.573149,-112.105858,-10.596831
10446,-0.309141,0.168093,0.846655,24.901346,-115.388557,-10.810587
10451,-0.284491,0.182004,0.828351,24.214272,-116.915375,-10.230392
10457,-0.267407,0.186397,0.827619,23.160761,-117.510841,-10.581562
10463,-0.259354,0.193719,0.849584,21.664467,-119.785820,-11.222831
10469,-0.269360,0.201285,0.892782,19.633781,-123.434937,-12.276344
10475,-0.209566,0.226667,0.888145,16.778608,-126.381729,-12.413758
10481,-0.186869,0.228375,0.845679,14.915876,-127.450516,-12.001514
10487,-0.159046,0.238381,0.829327,13.495925,-125.267136,-11.894636
10493,-0.146355,0.249364,0.859834,11.755338,-121.801231,-11.497662
10499,-0.131712,0.222029,0.842750,10.259046,-118.961327,-10.917466
10505,-0.122681,0.227155,0.826398,9.587239,-114.976311,-10.154051
10510,-0.099984,0.215684,0.840554,9.205532,-110.029381,-9.970830
10516,-0.083388,0.210803,0.826642,8.930703,-105.235130,-9.680733
10522,-0.064352,0.204701,0.839333,8.793288,-99.830147,-9.085269
10527,-0.044095,0.214952,0.847387,7.861922,-95.921463,-8.214976
10533,-0.018469,0.214708,0.876918,6.793141,-89.936295,-6.886634
10539,-0.031160,0.203481,0.917432,4.502896,-86.317711,-5.924731
10544,-0.014076,0.214952,0.926950,2.441675,-85.279465,-4.550584
10550,-0.006510,0.221053,0.909866,0.410992,-83.722092,-3.054291
10556,-0.011635,0.210803,0.896687,-1.833449,-82.821266,-2.260339
