timestamp,acc_x,acc_y,acc_z,gyro_x,gyro_y,gyro_z
3,-0.127563,-0.013486,0.873745,-2.841157,-0.433518,0.472686
8,-0.136105,-0.014462,0.878383,-2.719010,-0.891567,0.243662
13,-0.129759,-0.004456,0.889853,-2.657937,-1.380153,0.289467
18,-0.124390,-0.010557,0.858370,-2.764815,-1.945080,0.228394
23,-0.132444,-0.017879,0.880335,-2.764815,-0.922104,0.365808
28,-0.124878,-0.015926,0.864715,-2.932766,-0.738884,0.396345
33,-0.125610,-0.013730,0.879115,-2.810620,-0.723616,0.335272
38,-0.136593,-0.009337,0.875210,-2.780083,-1.731324,0.258930
43,-0.128295,-0.014462,0.872769,-2.719010,-1.654982,0.610101
48,-0.124878,-0.016659,0.865203,-2.734278,-1.303811,0.564296
53,-0.129271,-0.014462,0.871793,-2.749546,-0.601470,0.274199
58,-0.137325,-0.012265,0.872525,-2.810620,-0.693079,0.396345
63,-0.129759,-0.008117,0.883264,-2.673205,-1.364884,0.396345
68,-0.140742,-0.011289,0.881067,-2.657937,-1.609177,0.365808
73,-0.124146,-0.015926,0.854221,-2.825888,-1.258006,0.472686
78,-0.126098,-0.012998,0.862031,-2.948034,-0.708348,0.304735
83,-0.132932,-0.013974,0.879847,-2.886961,-0.738884,0.197857
88,-0.134640,-0.018367,0.878627,-2.764815,-1.349616,0.350540
93,-0.134396,-0.012265,0.864227,-2.703742,-1.746592,0.258930
98,-0.129271,-0.015926,0.866668,-2.780083,-1.487031,0.365808
103,-0.129759,-0.017391,0.864715,-3.009108,-0.601470,0.258930
108,-0.139033,-0.012998,0.890341,-2.902230,-0.677811,0.396345
114,-0.137813,-0.009337,0.888389,-2.719010,-1.487031,0.350540
119,-0.130979,-0.017635,0.863251,-2.688474,-1.471763,0.426881
125,-0.129027,-0.015926,0.853489,-2.764815,-0.952640,0.335272
130,-0.126830,-0.015682,0.873989,-2.780083,-0.815226,0.365808
136,-0.131223,-0.007628,0.887901,-2.795351,-0.983177,0.228394
141,-0.133664,-0.011045,0.887901,-2.703742,-1.471763,0.396345
147,-0.129759,-0.012265,0.871549,-2.810620,-1.532836,0.365808
152,-0.126098,-0.008849,0.864715,-2.902230,-1.028982,0.381077
157,-0.128539,-0.012998,0.872769,-2.780083,-0.983177,0.457418
163,-0.128783,-0.014950,0.877650,-2.673205,-1.105323,0.228394
168,-0.131223,-0.015194,0.880091,-2.841157,-1.258006,0.365808
174,-0.130491,-0.015194,0.875942,-2.719010,-1.258006,0.274199
179,-0.129027,-0.009093,0.866912,-2.810620,-0.861031,0.411613
185,-0.128295,-0.015682,0.867156,-2.795351,-0.922104,0.487955
190,-0.130003,-0.014218,0.879115,-2.642668,-1.074787,0.426881
196,-0.131223,-0.012998,0.871549,-2.688474,-1.181665,0.426881
201,-0.129271,-0.007140,0.872525,-2.749546,-0.937372,0.289467
207,-0.132444,-0.010069,0.868864,-2.780083,-0.906835,0.457418
212,-0.129271,-0.016659,0.873745,-2.795351,-1.135860,0.487955
218,-0.130491,-0.021296,0.871793,-2.780083,-1.212201,0.274199
223,-0.131956,-0.016903,0.869596,-2.886961,-1.212201,0.487955
228,-0.135128,-0.013974,0.876674,-2.795351,-1.120592,0.396345
234,-0.132444,-0.012021,0.868864,-2.749546,-1.105323,0.335272
239,-0.133420,-0.007628,0.866912,-2.688474,-1.151128,0.182589
245,-0.139766,-0.009825,0.867156,-2.795351,-0.937372,0.411613
250,-0.132932,-0.012265,0.877650,-2.780083,-0.830494,0.320003
256,-0.127319,-0.021052,0.875698,-2.612132,-1.120592,0.228394
261,-0.127319,-0.017879,0.866912,-2.673205,-1.090055,0.381077
267,-0.128539,-0.021296,0.860078,-2.688474,-0.891567,0.442150
272,-0.129515,-0.015926,0.872769,-2.749546,-0.906835,0.350540
278,-0.134152,-0.007628,0.882776,-2.780083,-1.074787,0.549028
283,-0.139033,-0.009825,0.877406,-2.749546,-1.120592,0.518491
289,-0.134640,-0.007384,0.868864,-2.719010,-1.212201,0.381077
294,-0.131223,-0.011289,0.873989,-2.673205,-1.105323,0.350540
300,-0.128539,-0.017879,0.867156,-2.749546,-0.998445,0.304735
305,-0.128051,-0.022760,0.866180,-2.764815,-1.166397,0.258930
310,-0.123902,-0.016170,0.876186,-2.871693,-1.151128,0.472686
316,-0.127563,-0.011533,0.875942,-2.657937,-1.212201,0.533760
321,-0.133908,-0.007140,0.865203,-2.749546,-1.166397,0.442150
327,-0.132688,-0.005188,0.867644,-2.749546,-1.074787,0.258930
332,-0.129027,-0.003479,0.866180,-2.810620,-1.196933,0.228394
338,-0.128051,-0.013242,0.873989,-2.719010,-1.090055,0.457418
343,-0.130735,-0.012510,0.869596,-2.810620,-1.120592,0.472686
349,-0.132932,-0.018123,0.877894,-2.810620,-1.303811,0.335272
354,-0.131956,-0.018855,0.873745,-2.749546,-1.151128,0.335272
360,-0.128539,-0.014950,0.873013,-2.688474,-1.135860,0.320003
365,-0.131712,-0.014950,0.873501,-2.749546,-1.059519,0.518491
371,-0.134396,-0.013242,0.875454,-2.764815,-1.151128,0.335272
376,-0.129271,-0.014462,0.861299,-2.719010,-1.090055,0.182589
381,-0.125122,-0.013486,0.877406,-2.734278,-1.090055,0.426881
387,-0.133664,-0.015438,0.872525,-2.673205,-1.166397,0.320003
392,-0.131468,-0.009581,0.867156,-2.764815,-1.166397,0.442150
398,-0.127319,-0.009825,0.868132,-2.764815,-0.983177,0.487955
403,-0.131468,-0.015438,0.875698,-2.780083,-1.105323,0.289467
409,-0.131468,-0.010313,0.865447,-2.719010,-1.074787,0.335272
414,-0.138301,-0.009825,0.868864,-2.749546,-1.166397,0.167320
420,-0.130003,-0.010557,0.868620,-2.657937,-1.074787,0.396345
425,-0.133176,-0.018123,0.871305,-2.703742,-0.998445,0.350540
431,-0.131712,-0.008849,0.867888,-2.703742,-1.074787,0.457418
436,-0.131223,-0.016170,0.862031,-2.764815,-1.120592,0.426881
442,-0.134884,-0.008361,0.871549,-2.719010,-1.303811,0.365808
447,-0.134152,-0.014218,0.869596,-2.795351,-1.135860,0.411613
453,-0.131223,-0.011045,0.879359,-2.932766,-1.135860,0.426881
458,-0.128783,-0.010801,0.868132,-2.825888,-1.151128,0.411613
463,-0.136837,-0.012998,0.872281,-2.780083,-1.273275,0.365808
469,-0.129515,-0.015926,0.871061,-2.642668,-1.044250,0.442150
474,-0.129027,-0.017147,0.877894,-2.703742,-1.105323,0.457418
480,-0.134152,-0.013730,0.869596,-2.871693,-1.028982,0.274199
485,-0.131956,-0.010069,0.873745,-2.734278,-1.059519,0.365808
491,-0.134152,-0.008849,0.873257,-2.856425,-1.151128,0.350540
496,-0.129759,-0.017391,0.872525,-2.673205,-0.998445,0.457418
502,-0.130003,-0.021296,0.871549,-2.871693,-0.983177,0.518491
507,-0.124878,-0.011533,0.870329,-2.856425,-1.166397,0.350540
513,-0.130491,-0.010313,0.866180,-2.688474,-1.044250,0.381077
518,-0.132688,-0.010069,0.874966,-2.703742,-1.074787,0.381077
524,-0.131468,-0.010801,0.870329,-2.764815,-0.967909,0.457418
529,-0.128051,-0.022760,0.870329,-2.657937,-1.105323,0.442150
535,-0.130491,-0.008361,0.872769,-2.581595,-1.120592,0.350540
540,-0.133176,-0.006652,0.869840,-2.734278,-1.059519,0.274199
545,-0.132444,-0.017391,0.871305,-2.795351,-0.983177,0.289467
551,-0.128783,-0.013730,0.875942,-2.841157,-1.166397,0.396345
556,-0.130491,-0.015926,0.873501,-2.703742,-1.013714,0.457418
562,-0.128539,-0.021052,0.873501,-2.703742,-1.105323,0.396345
567,-0.129759,-0.017879,0.875210,-2.642668,-1.212201,0.289467
573,-0.129515,-0.016903,0.876918,-2.688474,-1.090055,0.426881
578,-0.130003,-0.011777,0.877894,-2.780083,-1.105323,0.320003
584,-0.130979,-0.014706,0.871793,-2.673205,-1.028982,0.197857
589,-0.137081,-0.019587,0.860322,-2.764815,-1.166397,0.503223
595,-0.126586,-0.017879,0.873989,-2.795351,-1.059519,0.304735
600,-0.132688,-0.007384,0.871793,-2.673205,-1.288543,0.396345
606,-0.129515,-0.012021,0.875698,-2.795351,-1.242738,0.274199
611,-0.129271,-0.015682,0.880579,-2.627400,-1.074787,0.258930
616,-0.129759,-0.015438,0.869108,-2.688474,-0.937372,0.350540
622,-0.130735,-0.011045,0.869352,-2.734278,-1.135860,0.274199
627,-0.130003,-0.022760,0.873501,-2.703742,-1.319080,0.320003
633,-0.134152,-0.014950,0.869596,-2.749546,-1.059519,0.289467
638,-0.130979,-0.010313,0.868376,-2.734278,-1.242738,0.320003
644,-0.134640,-0.014462,0.873501,-2.841157,-1.196933,0.152052
649,-0.129271,-0.012265,0.868376,-2.780083,-1.105323,0.610101
655,-0.131712,-0.014218,0.875210,-2.780083,-0.983177,0.304735
660,-0.131223,-0.010557,0.864959,-2.734278,-1.196933,0.365808
666,-0.129027,-0.012998,0.871061,-2.612132,-1.028982,0.381077
671,-0.128783,-0.014706,0.873989,-2.825888,-0.983177,0.304735
677,-0.134396,-0.015682,0.869596,-2.780083,-1.074787,0.472686
682,-0.124390,-0.012998,0.870573,-2.886961,-0.952640,0.335272
688,-0.130979,-0.019587,0.874233,-2.902230,-1.090055,0.228394
693,-0.127807,-0.012998,0.868376,-2.734278,-1.013714,0.426881
698,-0.128783,-0.012998,0.866180,-2.642668,-0.876299,0.457418
704,-0.132444,-0.014706,0.873501,-2.749546,-1.120592,0.335272
709,-0.132688,-0.015438,0.875698,-2.795351,-1.212201,0.411613
715,-0.130979,-0.013730,0.871549,-2.642668,-1.105323,0.197857
720,-0.133420,-0.008605,0.867156,-2.810620,-1.303811,0.365808
726,-0.128051,-0.010313,0.870817,-2.703742,-1.227470,0.320003
731,-0.132688,-0.012021,0.876918,-2.856425,-1.105323,0.289467
737,-0.135128,-0.009093,0.870573,-2.657937,-1.044250,0.426881
742,-0.131712,-0.014218,0.878138,-2.764815,-0.998445,0.075711
748,-0.128295,-0.016414,0.873501,-2.734278,-1.120592,0.365808
753,-0.131712,-0.018367,0.863495,-2.703742,-1.181665,0.350540
759,-0.124878,-0.010313,0.877650,-2.719010,-0.815226,0.320003
764,-0.133176,-0.010313,0.876186,-2.719010,-1.334348,0.640638
770,-0.135372,-0.010069,0.866912,-2.719010,-1.135860,0.350540
775,-0.134152,-0.013730,0.866424,-2.703742,-1.196933,0.533760
780,-0.130003,-0.010069,0.874722,-2.688474,-1.242738,0.549028
786,-0.129027,-0.011777,0.874478,-2.703742,-0.952640,0.320003
791,-0.128539,-0.011533,0.874478,-2.780083,-1.181665,0.549028
797,-0.133664,-0.014706,0.875942,-2.703742,-1.120592,0.426881
802,-0.132932,-0.013242,0.871305,-2.825888,-1.028982,0.335272
808,-0.132444,-0.009825,0.873257,-2.719010,-1.258006,0.381077
813,-0.132932,-0.012998,0.875454,-2.764815,-1.059519,0.381077
819,-0.128295,-0.012998,0.865692,-2.734278,-1.303811,0.426881
824,-0.134152,-0.015438,0.873989,-2.886961,-1.349616,0.243662
830,-0.130491,-0.014218,0.873989,-2.749546,-1.303811,0.442150
835,-0.130735,-0.016903,0.871549,-2.657937,-0.967909,0.365808
841,-0.131712,-0.014218,0.881067,-2.886961,-1.028982,0.258930
846,-0.125610,-0.013486,0.872281,-2.795351,-0.906835,0.549028
852,-0.131468,-0.015438,0.880091,-2.520522,-1.120592,0.503223
857,-0.134884,-0.017635,0.868864,-2.612132,-1.074787,0.365808
862,-0.128783,-0.014462,0.870573,-2.764815,-1.303811,0.320003
868,-0.126098,-0.011289,0.875942,-2.810620,-1.013714,0.320003
873,-0.129271,-0.014218,0.869108,-2.688474,-0.922104,0.381077
879,-0.130247,-0.015194,0.866180,-2.871693,-1.120592,0.518491
884,-0.132932,-0.013486,0.870817,-2.810620,-0.983177,0.258930
890,-0.131956,-0.013730,0.870817,-2.688474,-1.044250,0.365808
895,-0.131956,-0.012998,0.878138,-2.596863,-1.151128,0.381077
901,-0.130247,-0.012510,0.868376,-2.688474,-1.074787,0.289467
906,-0.126830,-0.014950,0.866912,-2.749546,-1.090055,0.472686
912,-0.119509,-0.014706,0.875942,-2.703742,-1.151128,0.289467
917,-0.134396,-0.011289,0.878383,-2.749546,-1.135860,0.365808
923,-0.126830,-0.010313,0.873013,-2.703742,-1.028982,0.320003
928,-0.128783,-0.018367,0.875210,-2.657937,-1.181665,0.365808
933,-0.133176,-0.006896,0.873501,-2.795351,-1.028982,0.350540
939,-0.127563,-0.009581,0.873501,-2.642668,-1.303811,0.503223
944,-0.134884,-0.012998,0.871549,-2.627400,-1.227470,0.243662
950,-0.127319,-0.017879,0.862031,-2.764815,-1.105323,0.411613
955,-0.129027,-0.017635,0.875942,-2.734278,-1.166397,0.243662
961,-0.130003,-0.015194,0.872525,-2.612132,-0.906835,0.487955
966,-0.128051,-0.010069,0.873501,-2.749546,-1.044250,0.411613
972,-0.134152,-0.011045,0.882043,-2.810620,-1.090055,0.579565
977,-0.131468,-0.014706,0.872525,-2.596863,-1.120592,0.350540
983,-0.133176,-0.013486,0.865692,-2.749546,-0.922104,0.472686
988,-0.127563,-0.015926,0.880579,-2.673205,-1.273275,0.472686
994,-0.134640,-0.008117,0.864715,-2.688474,-1.151128,0.350540
999,-0.124634,-0.012998,0.855685,-2.688474,-1.151128,0.533760
1005,-0.124878,-0.015926,0.869108,-2.489985,-0.922104,0.396345
1010,-0.131712,-0.020807,0.848119,-2.383107,-0.967909,0.518491
1016,-0.129027,-0.012265,0.859102,-2.184619,-0.723616,0.487955
1021,-0.131223,-0.011289,0.871305,-2.154083,-0.937372,0.426881
1027,-0.126830,-0.011045,0.959410,-2.703742,-0.540396,0.442150
1032,-0.133664,-0.013486,0.886436,-2.352571,-0.693079,0.365808
1038,-0.133176,-0.014462,0.866668,-2.551059,-0.891567,0.518491
1043,-0.130979,-0.015926,0.873501,-2.780083,-1.517568,0.289467
1049,-0.122926,-0.019587,0.853001,-2.551059,-0.784689,0.396345
1055,-0.124146,-0.014950,0.862763,-2.902230,-1.059519,0.182589
1060,-0.126830,-0.012998,0.856417,-2.795351,-1.059519,0.457418
1066,-0.131956,-0.014218,0.876918,-2.795351,-1.502299,0.320003
1071,-0.132932,-0.011777,0.875698,-2.719010,-1.166397,0.396345
1077,-0.129515,-0.014218,0.870329,-2.657937,-0.906835,0.243662
1082,-0.132444,-0.008605,0.871549,-2.505254,-0.738884,0.426881
1088,-0.123658,-0.018123,0.861543,-2.322034,-0.677811,0.426881
1093,-0.128539,-0.013242,0.865447,-2.520522,-1.028982,0.365808
1099,-0.124878,-0.018367,0.862519,-2.383107,-0.937372,0.335272
1104,-0.130491,-0.017879,0.859102,-2.505254,-0.922104,0.365808
1110,-0.130003,-0.006408,0.880335,-2.719010,-0.845762,0.381077
1116,-0.135372,-0.007872,0.883020,-2.459449,-0.784689,0.426881
1121,-0.133908,-0.014706,0.883264,-2.459449,-0.906835,0.457418
1127,-0.133664,-0.010801,0.868864,-2.596863,-0.967909,0.274199
1132,-0.128295,-0.010801,0.881067,-2.719010,-0.799957,0.365808
1138,-0.130979,-0.009337,0.872037,-2.719010,-1.151128,0.487955
1143,-0.129027,-0.011289,0.865936,-2.581595,-1.242738,0.136784
1149,-0.127319,-0.008849,0.880091,-2.749546,-1.090055,0.243662
1154,-0.131956,-0.013974,0.869596,-2.535790,-0.937372,0.365808
1160,-0.131956,-0.014462,0.870573,-2.810620,-0.861031,0.381077
1166,-0.137813,-0.008605,0.869352,-2.673205,-0.815226,0.533760
1171,-0.129271,-0.003479,0.876918,-2.749546,-0.937372,0.365808
1177,-0.129027,-0.010069,0.878383,-2.642668,-1.135860,0.243662
1182,-0.130003,-0.013486,0.869108,-2.703742,-1.013714,0.365808
1188,-0.128295,-0.015438,0.868132,-2.505254,-0.799957,0.411613
1193,-0.129515,-0.012754,0.871061,-2.688474,-0.906835,0.472686
1199,-0.133420,-0.013242,0.871549,-2.749546,-0.983177,0.289467
1204,-0.131468,-0.013974,0.859346,-2.596863,-1.090055,0.396345
1210,-0.132200,-0.013730,0.874478,-2.688474,-0.906835,0.167320
1215,-0.127563,-0.009825,0.873257,-2.627400,-1.120592,0.136784
1221,-0.121461,-0.015682,0.873501,-2.673205,-0.861031,0.411613
1227,-0.128539,-0.012998,0.873745,-2.673205,-1.013714,0.518491
1232,-0.132688,-0.015194,0.868620,-2.612132,-0.815226,0.396345
1238,-0.131468,-0.012510,0.870573,-2.627400,-0.937372,0.381077
1243,-0.127807,-0.011533,0.875942,-2.657937,-0.998445,0.426881
1249,-0.126342,-0.012998,0.868864,-2.657937,-1.044250,0.243662
1254,-0.130003,-0.008361,0.871061,-2.627400,-0.967909,0.350540
1260,-0.134884,-0.013486,0.877894,-2.505254,-0.983177,0.457418
1266,-0.129759,-0.015194,0.878871,-2.703742,-0.922104,0.381077
1271,-0.132200,-0.012021,0.869596,-2.719010,-1.074787,0.457418
1277,-0.132200,-0.008117,0.869352,-2.688474,-0.967909,0.487955
1282,-0.131223,-0.014218,0.879359,-2.673205,-1.258006,0.167320
1288,-0.126098,-0.012998,0.871305,-2.657937,-0.906835,0.381077
1293,-0.136349,-0.018611,0.874233,-2.703742,-1.044250,0.289467
1299,-0.131712,-0.014462,0.873745,-2.841157,-1.105323,0.365808
1304,-0.137325,-0.011289,0.869352,-2.764815,-1.181665,0.350540
1310,-0.129759,-0.009581,0.878383,-2.657937,-1.090055,0.350540
1315,-0.126586,-0.017391,0.870085,-2.719010,-1.212201,0.442150
1321,-0.134640,-0.012510,0.873013,-2.657937,-1.105323,0.335272
1327,-0.128783,-0.011045,0.865203,-2.627400,-1.059519,0.350540
1332,-0.128295,-0.012510,0.864471,-2.642668,-0.906835,0.365808
1338,-0.129271,-0.019587,0.866912,-2.780083,-1.013714,0.457418
1343,-0.132200,-0.006164,0.876186,-2.581595,-0.937372,0.335272
1349,-0.131712,-0.012021,0.874478,-2.810620,-1.059519,0.426881
1354,-0.132932,-0.010069,0.881067,-2.719010,-1.151128,0.335272
1360,-0.134152,-0.012754,0.873257,-2.627400,-1.028982,0.365808
1365,-0.131468,-0.006408,0.880823,-2.795351,-0.906835,0.320003
1371,-0.130003,-0.012021,0.863739,-2.795351,-1.166397,0.411613
1377,-0.130491,-0.010313,0.868376,-2.688474,-1.090055,0.564296
1382,-0.130247,-0.014218,0.864471,-2.749546,-0.937372,0.396345
1388,-0.132688,-0.015926,0.875454,-2.688474,-0.998445,0.350540
1393,-0.136593,-0.007872,0.869596,-2.566327,-1.013714,0.350540
1399,-0.134152,-0.010069,0.867156,-2.688474,-0.967909,0.350540
1404,-0.132688,-0.018123,0.871061,-2.673205,-1.166397,0.426881
1410,-0.134884,-0.010801,0.870085,-2.673205,-1.044250,0.396345
1415,-0.135861,-0.012021,0.874233,-2.688474,-1.059519,0.503223
1421,-0.128295,-0.006652,0.863983,-2.749546,-1.028982,0.442150
1426,-0.125854,-0.012021,0.868376,-2.780083,-1.074787,0.411613
1432,-0.130003,-0.008361,0.870085,-2.780083,-0.967909,0.396345
1438,-0.128539,-0.013486,0.874966,-2.780083,-0.937372,0.365808
1443,-0.132932,-0.015682,0.879603,-2.764815,-1.105323,0.365808
1449,-0.136349,-0.012998,0.880823,-2.657937,-1.105323,0.381077
1454,-0.128783,-0.013486,0.872525,-2.719010,-0.967909,0.365808
1460,-0.133420,-0.012754,0.875942,-2.841157,-1.288543,0.426881
1465,-0.123658,-0.011289,0.873989,-2.673205,-1.044250,0.258930
1471,-0.132200,-0.013486,0.872769,-2.810620,-1.090055,0.503223
1476,-0.129271,-0.008117,0.877894,-2.764815,-1.028982,0.487955
1482,-0.131712,-0.012265,0.868864,-2.795351,-1.105323,0.426881
1488,-0.127319,-0.015194,0.876430,-2.780083,-1.028982,0.365808
1493,-0.130003,-0.013730,0.877162,-2.764815,-1.212201,0.442150
1499,-0.131956,-0.015926,0.869108,-2.703742,-1.151128,0.243662
1504,-0.132200,-0.012754,0.873257,-2.657937,-1.028982,0.304735
1510,-0.135617,-0.014218,0.883508,-2.825888,-1.044250,0.121516
1515,-0.136349,-0.012265,0.865447,-2.673205,-0.998445,0.457418
1521,-0.130247,-0.009581,0.872769,-2.642668,-1.242738,0.289467
1526,-0.127319,-0.012265,0.880823,-2.795351,-1.227470,0.381077
1532,-0.132688,-0.012510,0.866424,-2.764815,-1.258006,0.350540
1538,-0.129027,-0.004212,0.875454,-2.749546,-1.242738,0.243662
1543,-0.130003,-0.009825,0.869840,-2.688474,-1.258006,0.564296
1549,-0.127807,-0.014462,0.872525,-2.703742,-1.044250,0.518491
1554,-0.134396,-0.016170,0.867156,-2.825888,-1.044250,0.594833
1560,-0.135372,-0.012510,0.879359,-2.841157,-1.044250,0.442150
1565,-0.129027,-0.015682,0.868620,-2.841157,-1.028982,0.365808
1571,-0.128539,-0.011777,0.863495,-2.932766,-1.212201,0.411613
1576,-0.130979,-0.019587,0.864471,-2.764815,-1.303811,0.335272
1582,-0.131712,-0.009337,0.867644,-2.657937,-1.074787,0.320003
1587,-0.130491,-0.015438,0.876674,-2.825888,-1.242738,0.442150
1593,-0.135617,-0.011533,0.876430,-2.719010,-1.212201,0.335272
1599,-0.129271,-0.008117,0.868376,-2.749546,-1.258006,0.472686
1604,-0.135617,-0.016903,0.873501,-2.780083,-1.090055,0.411613
1610,-0.133664,-0.014950,0.871793,-2.627400,-1.288543,0.289467
1615,-0.133908,-0.009825,0.874722,-2.734278,-1.212201,0.350540
1621,-0.131956,-0.013730,0.873989,-2.642668,-1.135860,0.457418
1626,-0.134152,-0.015438,0.878871,-2.749546,-1.135860,0.549028
1632,-0.125610,-0.018367,0.873989,-2.719010,-1.273275,0.472686
1637,-0.129515,-0.012510,0.868132,-2.703742,-1.196933,0.579565
1643,-0.131712,-0.015438,0.865936,-2.734278,-1.135860,0.426881
1649,-0.127319,-0.007872,0.874478,-2.795351,-1.166397,0.503223
1654,-0.132688,-0.008361,0.867400,-2.810620,-1.196933,0.365808
1660,-0.128051,-0.016903,0.875210,-2.795351,-1.059519,0.274199
1665,-0.133420,-0.008849,0.866912,-2.810620,-1.273275,0.350540
1671,-0.132444,-0.009337,0.873501,-2.596863,-0.998445,0.365808
1676,-0.132200,-0.020807,0.873989,-2.673205,-1.028982,0.320003
1682,-0.125122,-0.012021,0.868620,-2.719010,-1.196933,0.381077
1687,-0.131712,-0.012265,0.874722,-2.703742,-1.120592,0.487955
1693,-0.128539,-0.012510,0.863007,-2.734278,-1.074787,0.594833
1699,-0.135372,-0.013486,0.861299,-2.780083,-0.906835,0.411613
1704,-0.133176,-0.012021,0.877894,-2.612132,-0.830494,0.213125
1710,-0.129515,-0.012510,0.867156,-2.596863,-1.090055,0.350540
1715,-0.134396,-0.009337,0.870573,-2.871693,-1.028982,0.472686
1721,-0.132444,-0.016903,0.883020,-2.764815,-1.120592,0.381077
1726,-0.122193,-0.015438,0.911818,-2.764815,-0.632006,0.426881
1732,-0.130491,-0.019831,0.846411,-2.474717,-0.998445,0.457418
1737,-0.126830,-0.014462,0.851536,-2.688474,-1.196933,0.518491
1743,-0.139033,-0.002015,0.856173,-2.825888,-1.135860,0.228394
1749,-0.140498,-0.004700,0.883264,-2.856425,-1.181665,0.335272
1754,-0.139277,-0.006896,0.892538,-2.780083,-0.983177,0.243662
1760,-0.127563,-0.014218,0.878383,-2.642668,-1.196933,0.350540
1765,-0.122681,-0.015194,0.872037,-2.688474,-1.074787,0.518491
1771,-0.122926,-0.017635,0.873745,-2.749546,-0.906835,0.442150
1776,-0.130003,-0.016659,0.863251,-2.749546,-0.799957,0.594833
1782,-0.133420,-0.005432,0.868864,-2.703742,-0.967909,0.396345
1787,-0.140742,0.001402,0.869840,-2.703742,-1.181665,0.243662
1793,-0.142938,-0.003968,0.864715,-2.795351,-1.151128,0.518491
1798,-0.130735,-0.005432,0.874478,-2.810620,-1.166397,0.320003
1804,-0.125854,-0.016659,0.875210,-2.734278,-1.090055,0.320003
1809,-0.127563,-0.023004,0.876918,-2.581595,-1.227470,0.472686
1815,-0.129759,-0.019831,0.871061,-2.612132,-1.212201,0.533760
1821,-0.136837,-0.015438,0.875454,-2.841157,-1.120592,0.503223
1826,-0.133420,-0.010069,0.874966,-2.764815,-0.861031,0.472686
1832,-0.136837,-0.015194,0.873257,-2.566327,-1.288543,0.411613
1837,-0.131956,-0.005920,0.869596,-2.764815,-1.151128,0.365808
1843,-0.136349,-0.013974,0.877406,-2.780083,-1.303811,0.426881
1848,-0.134640,-0.012754,0.878383,-2.764815,-1.120592,0.197857
1854,-0.124146,-0.009825,0.879359,-2.780083,-1.181665,0.243662
1859,-0.128539,-0.010313,0.867400,-2.627400,-0.891567,0.304735
1865,-0.133420,-0.010557,0.866912,-2.703742,-1.364884,0.274199
1871,-0.129515,-0.002747,0.875698,-2.734278,-1.135860,0.335272
1876,-0.131223,-0.013486,0.879603,-2.505254,-1.242738,0.518491
1882,-0.129759,-0.013730,0.870085,-2.871693,-1.258006,0.503223
1887,-0.128539,-0.017147,0.867644,-2.795351,-1.532836,0.442150
1893,-0.132444,-0.016903,0.877162,-2.764815,-1.212201,0.381077
1898,-0.136105,-0.012998,0.874722,-2.596863,-1.181665,0.304735
1904,-0.137081,-0.006896,0.879603,-2.688474,-1.288543,0.533760
1909,-0.129759,-0.005676,0.873013,-2.734278,-1.059519,0.304735
1915,-0.130491,-0.007872,0.873013,-2.825888,-1.288543,0.258930
1921,-0.123658,-0.017147,0.870085,-2.856425,-1.303811,0.365808
1926,-0.130003,-0.012998,0.876430,-2.856425,-1.181665,0.258930
1932,-0.127563,-0.010313,0.864227,-2.612132,-1.227470,0.350540
1937,-0.132932,-0.012998,0.873745,-2.719010,-1.120592,0.487955
1943,-0.129271,-0.015438,0.869108,-2.688474,-1.258006,0.655906
1948,-0.132444,-0.014462,0.869108,-2.871693,-1.151128,0.381077
1954,-0.131712,-0.007628,0.866180,-2.749546,-1.105323,0.182589
1959,-0.129515,-0.018367,0.866424,-2.642668,-1.120592,0.365808
1965,-0.130247,-0.013242,0.868376,-2.734278,-0.876299,0.411613
1970,-0.133420,-0.016659,0.861299,-2.871693,-1.212201,0.411613
1976,-0.127319,-0.014218,0.876918,-2.703742,-1.120592,0.411613
1982,-0.128539,-0.014462,0.871305,-2.825888,-0.998445,0.213125
1987,-0.132932,-0.008361,0.872281,-2.703742,-1.196933,0.442150
1993,-0.128783,-0.007872,0.873501,-2.780083,-1.135860,0.655906
1998,-0.129759,-0.016414,0.867644,-2.581595,-1.090055,0.365808
2004,-0.132444,-0.009581,0.873501,-2.703742,-1.120592,0.274199
2009,-0.132688,-0.012998,0.869840,-2.795351,-1.090055,0.365808
2015,-0.125610,-0.012021,0.867400,-2.780083,-1.166397,0.579565
2020,-0.128051,-0.012754,0.869840,-2.734278,-0.922104,0.365808
2026,-0.132932,-0.010313,0.881067,-2.917498,-1.349616,0.396345
2032,-0.136837,-0.012021,0.874722,-2.627400,-1.227470,0.258930
2037,-0.125122,-0.009337,0.875210,-2.596863,-1.013714,0.365808
2043,-0.139521,-0.009581,0.871305,-2.703742,-1.364884,0.426881
2048,-0.130491,-0.011289,0.873745,-2.749546,-1.135860,0.335272
2054,-0.120241,-0.013486,0.870817,-2.596863,-1.090055,0.350540
2059,-0.132200,-0.016414,0.869352,-2.810620,-1.074787,0.472686
2065,-0.132444,-0.014218,0.871061,-2.657937,-1.074787,0.533760
2070,-0.134152,-0.007628,0.872769,-2.841157,-1.166397,0.381077
2076,-0.130491,-0.015194,0.865203,-2.780083,-1.059519,0.320003
2082,-0.130491,-0.017879,0.884728,-2.795351,-1.028982,0.549028
2087,-0.132444,-0.015926,0.868376,-2.825888,-1.120592,0.304735
2093,-0.128051,-0.016659,0.875942,-2.612132,-1.059519,0.411613
2098,-0.127075,-0.013730,0.869596,-2.596863,-1.151128,0.335272
2104,-0.129515,-0.011533,0.879115,-2.703742,-1.135860,0.411613
2109,-0.137081,-0.011045,0.879847,-2.734278,-1.074787,0.442150
2115,-0.127563,-0.009093,0.864227,-2.886961,-0.983177,0.533760
2120,-0.134640,-0.011777,0.879115,-2.902230,-0.937372,0.320003
2126,-0.132688,-0.015194,0.872769,-2.780083,-0.983177,0.274199
2131,-0.134152,-0.013730,0.876674,-2.612132,-1.196933,0.365808
2137,-0.135372,-0.010801,0.871793,-2.627400,-0.799957,0.213125
2143,-0.135128,-0.018123,0.868864,-2.596863,-1.013714,0.274199
2148,-0.130491,-0.010801,0.867888,-2.734278,-1.090055,0.335272
2154,-0.134152,-0.003723,0.872037,-2.657937,-1.028982,0.228394
2159,-0.127319,-0.012265,0.869108,-2.642668,-0.998445,0.152052
2165,-0.128783,-0.010313,0.871549,-2.886961,-0.983177,0.304735
2170,-0.133420,-0.010069,0.866912,-2.749546,-0.922104,0.442150
2176,-0.127807,-0.008361,0.873013,-2.688474,-0.952640,0.564296
2181,-0.126342,-0.013242,0.873013,-2.703742,-1.074787,0.213125
2187,-0.134640,-0.013974,0.875698,-2.856425,-0.891567,0.503223
2193,-0.136593,-0.012021,0.876430,-2.780083,-1.105323,0.304735
2198,-0.134396,-0.014706,0.858858,-2.627400,-0.952640,0.381077
2204,-0.136349,-0.012998,0.859102,-2.795351,-1.181665,0.182589
2209,-0.134396,-0.010801,0.876674,-2.917498,-1.120592,0.411613
2215,-0.137569,-0.013974,0.872037,-2.627400,-1.303811,0.167320
2220,-0.133908,-0.011045,0.868132,-2.703742,-1.120592,0.197857
2226,-0.133908,-0.019587,0.864227,-2.551059,-0.983177,0.274199
2231,-0.132200,-0.010313,0.866180,-2.719010,-1.074787,0.442150
2237,-0.128295,-0.006896,0.865203,-2.627400,-1.135860,0.457418
2243,-0.128539,-0.011533,0.874966,-2.657937,-1.044250,0.487955
2248,-0.130735,-0.012998,0.877162,-2.719010,-0.967909,0.335272
2254,-0.137081,-0.012021,0.879603,-2.581595,-1.013714,0.381077
2259,-0.131223,-0.018855,0.871061,-2.795351,-1.120592,0.350540
2265,-0.134396,-0.016414,0.874966,-2.688474,-0.998445,0.396345
2270,-0.131468,-0.016414,0.865692,-2.688474,-1.044250,0.487955
2276,-0.132688,-0.010069,0.867156,-2.657937,-1.013714,0.518491
2281,-0.134884,-0.011045,0.873989,-2.734278,-1.090055,0.411613
2287,-0.138057,-0.009337,0.863495,-2.688474,-1.227470,0.350540
2293,-0.131223,-0.015682,0.868132,-2.825888,-1.196933,0.503223
2298,-0.126830,-0.009581,0.879847,-2.703742,-0.784689,0.350540
2304,-0.133908,-0.013486,0.865203,-2.627400,-1.151128,0.320003
2309,-0.132444,-0.011777,0.870329,-2.795351,-1.120592,0.426881
2315,-0.133908,-0.014462,0.870085,-2.719010,-1.013714,0.320003
2320,-0.132444,-0.011533,0.872525,-2.780083,-1.120592,0.426881
2326,-0.127563,-0.010801,0.869840,-2.657937,-0.983177,0.442150
2331,-0.133420,-0.011777,0.866180,-2.627400,-1.181665,0.320003
2337,-0.131468,-0.010557,0.869108,-2.673205,-1.044250,0.472686
2342,-0.137325,-0.012754,0.872525,-2.886961,-1.151128,0.396345
2348,-0.133176,-0.015926,0.878627,-2.810620,-1.181665,0.274199
2354,-0.136837,-0.015926,0.876186,-2.932766,-1.212201,0.335272
2359,-0.124878,-0.012265,0.879359,-2.841157,-1.013714,0.335272
2365,-0.132932,-0.013486,0.864471,-2.749546,-1.441226,0.197857
2370,-0.132932,-0.013486,0.867400,-2.902230,-1.120592,0.472686
2376,-0.127563,-0.013486,0.870817,-2.688474,-1.090055,0.243662
2381,-0.128051,-0.012021,0.873745,-2.902230,-1.090055,0.320003
2387,-0.133420,-0.014462,0.870329,-2.657937,-1.242738,0.304735
2392,-0.129759,-0.011045,0.876430,-2.719010,-1.303811,0.304735
2398,-0.134396,-0.013974,0.869108,-2.795351,-1.334348,0.335272
2404,-0.129515,-0.015438,0.869108,-2.810620,-1.258006,0.213125
2409,-0.128539,-0.009337,0.871061,-2.719010,-1.135860,0.426881
2415,-0.132200,-0.010069,0.877406,-2.688474,-1.135860,0.396345
2420,-0.132200,-0.011045,0.864471,-2.810620,-1.135860,0.426881
2426,-0.134396,-0.013486,0.865203,-2.764815,-1.074787,0.350540
2431,-0.127319,-0.013730,0.864959,-2.673205,-1.135860,0.274199
2437,-0.130003,-0.009581,0.872525,-2.825888,-1.059519,0.213125
2442,-0.128539,-0.011533,0.871305,-2.795351,-1.044250,0.472686
2448,-0.136837,-0.015682,0.869840,-2.810620,-1.120592,0.487955
2454,-0.138057,-0.016414,0.863007,-2.734278,-1.013714,0.442150
2459,-0.130979,-0.012510,0.876674,-2.734278,-0.998445,0.533760
2465,-0.133908,-0.006896,0.870085,-2.734278,-1.059519,0.350540
2470,-0.129759,-0.012021,0.865692,-2.657937,-1.349616,0.533760
2476,-0.130735,-0.010801,0.871305,-2.749546,-1.135860,0.549028
2481,-0.124878,-0.010801,0.871061,-2.810620,-1.151128,0.411613
2487,-0.130735,-0.006408,0.872769,-2.810620,-1.242738,0.304735
2492,-0.124390,-0.014950,0.873989,-2.749546,-1.135860,0.381077
2498,-0.129027,-0.020807,0.874233,-2.749546,-1.120592,0.381077
2503,-0.126342,-0.010801,0.869108,-2.719010,-1.105323,0.457418
2509,-0.138545,-0.012998,0.865447,-2.780083,-1.105323,0.289467
2515,-0.130979,-0.010069,0.873013,-2.749546,-1.166397,0.350540
2520,-0.129515,-0.012265,0.870573,-2.764815,-1.196933,0.426881
2526,-0.130735,-0.011045,0.871793,-2.673205,-1.120592,0.350540
2531,-0.128295,-0.013974,0.879115,-2.902230,-1.151128,0.594833
2537,-0.130247,-0.010069,0.879359,-2.734278,-1.135860,0.411613
2542,-0.123902,-0.016659,0.869596,-2.856425,-1.288543,0.304735
2548,-0.131468,-0.011777,0.873501,-2.780083,-1.028982,0.365808
2553,-0.132200,-0.008117,0.869352,-2.688474,-1.166397,0.518491
2559,-0.134640,-0.010069,0.869108,-2.673205,-1.196933,0.381077
2565,-0.130979,-0.009825,0.876430,-2.703742,-1.044250,0.533760
2570,-0.129027,-0.012021,0.863495,-2.749546,-1.074787,0.411613
2576,-0.133420,-0.017391,0.870085,-2.764815,-1.013714,0.381077
2581,-0.129027,-0.006652,0.869108,-2.902230,-1.135860,0.411613
2587,-0.134640,-0.013730,0.879603,-2.825888,-1.181665,0.396345
2592,-0.130491,-0.007384,0.870329,-2.948034,-1.028982,0.350540
2598,-0.135372,-0.014218,0.867644,-2.764815,-1.135860,0.335272
2603,-0.129027,-0.013974,0.870817,-2.642668,-1.090055,0.503223
2609,-0.130247,-0.011045,0.864227,-2.627400,-1.105323,0.304735
2615,-0.133420,-0.013730,0.875942,-2.703742,-1.303811,0.274199
2620,-0.129515,-0.011289,0.880823,-2.795351,-1.028982,0.258930
2626,-0.123902,-0.018123,0.881067,-2.719010,-1.090055,0.289467
2631,-0.136593,-0.017147,0.871061,-2.642668,-1.181665,0.381077
2637,-0.132688,-0.005676,0.873257,-2.657937,-1.028982,0.625369
2642,-0.133420,-0.005432,0.881555,-2.596863,-1.227470,0.304735
2648,-0.136593,-0.006164,0.866912,-2.810620,-0.998445,0.381077
2653,-0.134884,-0.017147,0.873257,-2.551059,-1.319080,0.411613
2659,-0.130735,-0.012998,0.868132,-2.703742,-1.135860,0.442150
2664,-0.131956,-0.012510,0.868376,-2.810620,-1.044250,0.396345
2670,-0.128539,-0.011045,0.872281,-2.780083,-0.906835,0.228394
2676,-0.134152,-0.011045,0.870573,-2.719010,-1.227470,0.320003
2681,-0.136593,-0.008361,0.873989,-2.703742,-1.028982,0.258930
2687,-0.135861,-0.010557,0.874233,-2.688474,-1.013714,0.426881
2692,-0.130979,-0.012998,0.863251,-2.825888,-1.120592,0.411613
2698,-0.133908,-0.009093,0.875210,-2.856425,-1.227470,0.304735
2703,-0.126586,-0.016170,0.871793,-2.780083,-1.090055,0.289467
2709,-0.136105,-0.015194,0.874966,-2.780083,-1.181665,0.365808
2714,-0.128783,-0.012754,0.866424,-2.734278,-1.028982,0.426881
2720,-0.127319,-0.009825,0.881311,-2.749546,-1.151128,0.396345
2726,-0.129271,-0.014950,0.870573,-2.703742,-1.074787,0.381077
2731,-0.130979,-0.012510,0.868376,-2.764815,-1.288543,0.274199
2737,-0.131468,-0.011289,0.869596,-2.642668,-1.212201,0.350540
2742,-0.138545,-0.016659,0.871061,-2.688474,-1.212201,0.304735
2748,-0.132200,-0.009093,0.865447,-2.596863,-1.059519,0.426881
2753,-0.128539,-0.010801,0.873013,-2.551059,-1.151128,0.320003
2759,-0.137081,-0.012265,0.870329,-2.749546,-1.074787,0.411613
2764,-0.130735,-0.012754,0.880823,-2.673205,-0.952640,0.426881
2770,-0.140742,-0.019343,0.868620,-2.871693,-1.151128,0.503223
2776,-0.134884,-0.008849,0.873257,-2.886961,-1.166397,0.396345
2781,-0.128783,-0.012021,0.875942,-2.810620,-1.135860,0.228394
2787,-0.136593,-0.013730,0.872769,-2.719010,-1.181665,0.533760
2792,-0.128539,-0.012998,0.882287,-2.764815,-1.242738,0.258930
2798,-0.133908,-0.012510,0.872525,-2.764815,-1.120592,0.457418
2803,-0.124634,-0.015194,0.866424,-2.841157,-1.227470,0.411613
2809,-0.134152,-0.004700,0.869352,-2.764815,-1.120592,0.411613
2814,-0.129027,-0.013974,0.868376,-2.810620,-1.151128,0.533760
2820,-0.132688,-0.016659,0.875942,-2.703742,-1.273275,0.274199
2826,-0.135861,-0.013730,0.866424,-2.764815,-0.815226,0.320003
2831,-0.137325,-0.014950,0.875942,-2.764815,-1.196933,0.320003
2837,-0.135861,-0.012265,0.870085,-2.871693,-0.998445,0.487955
2842,-0.138545,-0.012510,0.873501,-2.719010,-1.090055,0.350540
2848,-0.131712,-0.007872,0.871061,-2.719010,-1.212201,0.487955
2853,-0.134396,-0.011533,0.875698,-2.719010,-0.906835,0.365808
2859,-0.130247,-0.017879,0.866912,-2.764815,-1.166397,0.243662
2864,-0.128783,-0.016414,0.872281,-2.673205,-1.181665,0.457418
2870,-0.133908,-0.018123,0.872281,-2.703742,-1.135860,0.289467
2875,-0.129759,-0.012021,0.874722,-2.627400,-1.074787,0.152052
2881,-0.126586,-0.012265,0.873501,-2.734278,-1.212201,0.518491
2887,-0.124390,-0.015926,0.867156,-2.719010,-1.120592,0.213125
2892,-0.129271,-0.012510,0.864715,-2.749546,-1.135860,0.274199
2898,-0.133176,-0.013486,0.869840,-2.703742,-1.090055,0.258930
2903,-0.137569,-0.015682,0.864227,-2.673205,-0.998445,0.487955
2909,-0.136593,-0.013242,0.869840,-2.719010,-1.181665,0.167320
2914,-0.132688,-0.017147,0.870817,-2.673205,-0.998445,0.426881
2920,-0.131223,-0.010313,0.865692,-2.673205,-1.181665,0.320003
2925,-0.131712,-0.009581,0.870085,-2.749546,-1.166397,0.503223
2931,-0.126342,-0.015194,0.876186,-2.703742,-1.044250,0.243662
2937,-0.127563,-0.013486,0.872281,-2.734278,-1.044250,0.304735
2942,-0.135372,-0.012265,0.881555,-2.780083,-1.074787,0.350540
2948,-0.134884,-0.011289,0.873501,-2.764815,-1.044250,0.381077
2953,-0.131468,-0.015682,0.870573,-2.719010,-1.166397,0.457418
2959,-0.132932,-0.012510,0.877162,-2.871693,-1.074787,0.533760
2964,-0.129515,-0.010801,0.873257,-2.780083,-1.044250,0.549028
2970,-0.130735,-0.014218,0.875454,-2.719010,-1.135860,0.365808
2975,-0.132932,-0.012021,0.871061,-2.688474,-1.273275,0.487955
2981,-0.136837,-0.015438,0.878138,-2.734278,-1.273275,0.411613
2986,-0.132688,-0.015926,0.868376,-2.764815,-1.120592,0.442150
2992,-0.132688,-0.015926,0.872769,-2.703742,-1.059519,0.411613
2998,-0.132932,-0.013242,0.881555,-2.764815,-1.349616,0.335272
3003,-0.130247,-0.006408,0.881311,-2.749546,-0.891567,0.381077
3009,-0.123902,-0.012265,0.875210,-2.871693,-1.120592,0.335272
3014,-0.133664,-0.010313,0.872525,-2.612132,-1.028982,0.152052
3020,-0.130247,-0.014218,0.878383,-2.749546,-1.181665,0.274199
3025,-0.126830,-0.012998,0.876674,-2.795351,-1.074787,0.442150
3031,-0.134640,-0.010801,0.863983,-2.886961,-1.166397,0.381077
3036,-0.130735,-0.014950,0.865936,-2.703742,-1.151128,0.411613
3042,-0.130003,-0.009581,0.870329,-2.703742,-1.212201,0.350540
3048,-0.130491,-0.010313,0.882532,-2.703742,-1.044250,0.243662
3053,-0.128539,-0.010801,0.873013,-2.657937,-1.166397,0.289467
3059,-0.132932,-0.009093,0.878627,-2.627400,-1.212201,0.457418
3064,-0.128539,-0.012998,0.865692,-2.841157,-1.013714,0.564296
3070,-0.129027,-0.014950,0.868620,-2.856425,-0.952640,0.396345
3075,-0.131712,-0.013730,0.872281,-2.810620,-1.090055,0.304735
3081,-0.130979,-0.016414,0.874722,-2.703742,-0.891567,0.350540
3086,-0.136105,-0.012265,0.873013,-2.642668,-1.074787,0.457418
3092,-0.131223,-0.010801,0.867156,-2.688474,-1.151128,0.487955
3098,-0.126830,-0.014218,0.871305,-2.795351,-1.212201,0.167320
3103,-0.126830,-0.008605,0.880335,-2.581595,-1.105323,0.426881
3109,-0.130003,-0.014462,0.865692,-2.688474,-1.181665,0.320003
3114,-0.136105,-0.012265,0.870817,-2.688474,-1.181665,0.457418
3120,-0.132200,-0.011045,0.877406,-2.856425,-1.120592,0.213125
3125,-0.136105,-0.008849,0.869352,-2.734278,-1.120592,0.533760
3131,-0.132200,-0.016170,0.877894,-2.749546,-1.166397,0.472686
3136,-0.135372,-0.009581,0.869352,-2.749546,-1.059519,0.228394
3142,-0.130979,-0.009825,0.870085,-2.795351,-1.120592,0.320003
3148,-0.135617,-0.010557,0.871305,-2.764815,-0.967909,0.258930
3153,-0.131956,-0.014462,0.861787,-2.871693,-1.120592,0.503223
3159,-0.135617,-0.009337,0.872037,-2.719010,-1.074787,0.426881
3164,-0.128051,-0.016170,0.866668,-2.795351,-1.074787,0.350540
3170,-0.130735,-0.011045,0.868376,-2.764815,-1.334348,0.487955
3175,-0.129759,-0.011533,0.876186,-2.688474,-1.135860,0.472686
3181,-0.128295,-0.007628,0.865692,-2.703742,-1.364884,0.381077
3186,-0.133176,-0.015438,0.870573,-2.596863,-1.151128,0.518491
3192,-0.132932,-0.011289,0.870329,-2.688474,-1.044250,0.243662
3197,-0.131712,-0.012021,0.878627,-2.688474,-0.952640,0.381077
3203,-0.136105,-0.009093,0.876918,-2.764815,-1.105323,0.396345
3209,-0.133420,-0.009825,0.873257,-2.657937,-1.166397,0.213125
3214,-0.132932,-0.010557,0.863007,-2.856425,-1.151128,0.426881
3220,-0.129271,-0.015682,0.868132,-2.703742,-1.013714,0.365808
3225,-0.134152,-0.017879,0.872769,-2.688474,-1.151128,0.243662
3231,-0.131956,-0.016170,0.872769,-2.764815,-1.151128,0.472686
3236,-0.128539,-0.008849,0.873257,-2.734278,-1.059519,0.533760
3242,-0.128539,-0.011777,0.876674,-2.596863,-0.983177,0.396345
3247,-0.133908,-0.014950,0.859346,-2.734278,-1.013714,0.442150
3253,-0.134640,-0.012510,0.875454,-2.673205,-1.120592,0.396345
3259,-0.134152,-0.010801,0.873257,-2.719010,-1.013714,0.304735
3264,-0.135861,-0.016659,0.871061,-2.795351,-0.967909,0.320003
3270,-0.132200,-0.012021,0.872037,-2.596863,-1.273275,0.182589
3275,-0.128051,-0.011777,0.866180,-2.719010,-1.120592,0.365808
3281,-0.129027,-0.014950,0.874722,-2.856425,-1.151128,0.442150
3286,-0.128783,-0.015194,0.872769,-2.688474,-1.288543,0.365808
3292,-0.128783,-0.007140,0.876430,-2.719010,-1.212201,0.335272
3297,-0.131956,-0.008849,0.877894,-2.764815,-1.151128,0.197857
3303,-0.135861,-0.010801,0.863007,-2.856425,-1.273275,0.411613
3309,-0.135372,-0.008605,0.864227,-2.688474,-1.319080,0.457418
3314,-0.133176,-0.006652,0.879359,-2.520522,-1.059519,0.289467
3320,-0.134884,-0.007384,0.873989,-2.780083,-1.166397,0.350540
3325,-0.131468,-0.015194,0.863739,-2.749546,-1.349616,0.335272
3331,-0.135372,-0.007628,0.867644,-2.535790,-1.166397,0.258930
3336,-0.126586,-0.010801,0.874966,-2.871693,-0.861031,0.396345
3342,-0.130979,-0.009825,0.868620,-2.673205,-1.120592,0.121516
3347,-0.131468,-0.013242,0.878627,-2.734278,-1.212201,0.304735
3353,-0.133176,-0.013486,0.871305,-2.596863,-1.044250,0.365808
3358,-0.132444,-0.011777,0.874966,-2.749546,-0.983177,0.289467
3364,-0.131712,-0.013486,0.875942,-2.749546,-1.044250,0.258930
3370,-0.125610,-0.009337,0.869108,-2.749546,-1.044250,0.350540
3375,-0.134396,-0.009581,0.878138,-2.673205,-1.212201,0.396345
3381,-0.130003,-0.017635,0.868376,-2.688474,-1.120592,0.381077
3386,-0.136349,-0.012510,0.871061,-2.703742,-1.212201,0.304735
3392,-0.136105,-0.013486,0.865936,-2.795351,-1.135860,0.365808
3397,-0.138057,-0.009093,0.873013,-2.734278,-1.196933,0.487955
3403,-0.133664,-0.004456,0.873501,-2.703742,-1.227470,0.304735
3408,-0.128051,-0.015926,0.871061,-2.764815,-1.059519,0.197857
3414,-0.130247,-0.018123,0.881067,-2.703742,-1.166397,0.381077
3420,-0.135617,-0.013974,0.876918,-2.719010,-1.120592,0.152052
3425,-0.131223,-0.013242,0.876430,-2.673205,-1.059519,0.381077
3431,-0.132200,-0.010313,0.871549,-2.612132,-1.028982,0.335272
3436,-0.133420,-0.019587,0.877650,-2.810620,-1.090055,0.442150
3442,-0.133420,-0.008605,0.869596,-2.719010,-1.319080,0.457418
3447,-0.133664,-0.011533,0.873745,-2.581595,-1.090055,0.472686
3453,-0.132444,-0.013730,0.879115,-2.749546,-1.151128,0.381077
3458,-0.128295,-0.017391,0.878627,-2.749546,-1.273275,0.289467
3464,-0.129271,-0.012754,0.879115,-2.703742,-0.769421,0.320003
3470,-0.136593,-0.009581,0.875942,-2.657937,-1.135860,0.258930
3475,-0.135128,-0.010557,0.872281,-2.688474,-1.013714,0.320003
3481,-0.129759,-0.015438,0.871549,-2.612132,-1.227470,0.457418
3486,-0.129027,-0.012021,0.871793,-2.749546,-1.135860,0.457418
3492,-0.129271,-0.012265,0.876430,-2.688474,-1.059519,0.396345
3497,-0.126098,-0.011045,0.870085,-2.703742,-1.135860,0.411613
3503,-0.130735,-0.013486,0.877162,-2.795351,-1.044250,0.243662
3508,-0.132200,-0.005920,0.873745,-2.749546,-0.998445,0.289467
3514,-0.131712,-0.008605,0.869108,-2.764815,-1.303811,0.426881
3519,-0.136837,-0.009581,0.881555,-2.688474,-1.059519,0.396345
3525,-0.135861,-0.008361,0.871793,-2.795351,-0.998445,0.533760
3531,-0.132200,-0.011777,0.878871,-2.596863,-1.090055,0.228394
3536,-0.130003,-0.012998,0.870085,-2.780083,-0.952640,0.533760
3542,-0.134396,-0.014950,0.872037,-2.688474,-1.120592,0.304735
3547,-0.127319,-0.010557,0.877162,-2.719010,-1.196933,0.457418
3553,-0.129759,-0.008361,0.872525,-2.734278,-1.181665,0.381077
3558,-0.133420,-0.017391,0.874233,-2.749546,-1.242738,0.426881
3564,-0.126342,-0.014218,0.872281,-2.795351,-1.135860,0.274199
3569,-0.127807,-0.011289,0.867156,-2.703742,-1.303811,0.472686
3575,-0.132688,-0.016659,0.879847,-2.703742,-0.937372,0.289467
3581,-0.128783,-0.013242,0.862519,-2.795351,-1.090055,0.503223
3586,-0.136837,-0.011289,0.861054,-2.703742,-0.937372,0.518491
3592,-0.132200,-0.010313,0.871305,-2.627400,-1.074787,0.396345
3597,-0.132200,-0.010069,0.880335,-2.657937,-1.288543,0.274199
3603,-0.131712,-0.007140,0.869596,-2.764815,-0.998445,0.365808
3608,-0.129759,-0.007872,0.867156,-2.841157,-1.319080,0.350540
3614,-0.129759,-0.016659,0.873257,-2.825888,-1.090055,0.274199
3619,-0.135617,-0.018367,0.874966,-2.780083,-1.135860,0.304735
3625,-0.133420,-0.014950,0.877162,-2.780083,-1.028982,0.243662
3631,-0.134640,-0.010313,0.869596,-2.734278,-0.876299,0.381077
3636,-0.128783,-0.006652,0.864959,-2.734278,-1.166397,0.228394
3642,-0.135372,-0.011045,0.873013,-2.795351,-1.166397,0.304735
3647,-0.137325,-0.014462,0.870573,-2.780083,-1.166397,0.289467
3653,-0.132444,-0.013730,0.874478,-2.795351,-0.952640,0.426881
3658,-0.135861,-0.011777,0.872037,-2.719010,-1.120592,0.411613
3664,-0.130247,-0.012510,0.866180,-2.673205,-1.090055,0.335272
3669,-0.134396,-0.015194,0.876186,-2.627400,-1.105323,0.579565
3675,-0.131956,-0.014218,0.875210,-2.719010,-1.227470,0.594833
3681,-0.133176,-0.003235,0.868864,-2.749546,-1.044250,0.320003
3686,-0.129515,-0.013730,0.863007,-2.795351,-1.212201,0.426881
3692,-0.128783,-0.011289,0.871061,-2.719010,-1.105323,0.518491
3697,-0.126342,-0.011777,0.871549,-2.825888,-1.196933,0.274199
3703,-0.133664,-0.017147,0.871061,-2.551059,-1.105323,0.411613
3708,-0.130491,-0.014706,0.877650,-2.719010,-1.013714,0.503223
3714,-0.133908,-0.017147,0.866912,-2.856425,-1.135860,0.381077
3719,-0.140742,-0.010801,0.874478,-2.703742,-1.166397,0.274199
3725,-0.129515,-0.013730,0.865203,-2.719010,-1.105323,0.396345
3730,-0.131468,-0.015438,0.872525,-2.612132,-1.013714,0.365808
3736,-0.138057,-0.008361,0.872769,-2.749546,-1.212201,0.533760
3742,-0.142206,-0.010801,0.867644,-2.703742,-1.196933,0.411613
3747,-0.127075,-0.008117,0.860566,-2.734278,-1.273275,0.274199
3753,-0.133664,-0.008361,0.873013,-2.734278,-0.998445,0.289467
3758,-0.134396,-0.007872,0.874966,-2.703742,-1.212201,0.320003
3764,-0.129271,-0.013730,0.865936,-2.688474,-1.105323,0.258930
3769,-0.132200,-0.011045,0.870085,-2.764815,-1.151128,0.381077
3775,-0.134884,-0.008117,0.863739,-2.627400,-1.059519,0.426881
3780,-0.124634,-0.006896,0.868620,-2.764815,-1.135860,0.472686
3786,-0.125122,-0.017391,0.867644,-2.703742,-1.059519,0.549028
3792,-0.133664,-0.012265,0.860566,-2.749546,-1.242738,0.228394
3797,-0.133664,-0.010801,0.867644,-2.719010,-1.090055,0.350540
3803,-0.131712,-0.014950,0.875454,-2.703742,-1.028982,0.457418
3808,-0.133420,-0.007872,0.869108,-2.703742,-1.105323,0.182589
3814,-0.137325,-0.013730,0.863007,-2.764815,-1.181665,0.381077
3819,-0.128783,-0.012998,0.866424,-2.642668,-1.105323,0.442150
3825,-0.133664,-0.016903,0.874722,-2.703742,-1.028982,0.335272
3830,-0.128295,-0.015194,0.874722,-2.825888,-1.013714,0.457418
3836,-0.134884,-0.016414,0.875698,-2.719010,-1.273275,0.411613
3842,-0.138789,-0.010313,0.878383,-2.734278,-1.227470,0.442150
3847,-0.132444,-0.011289,0.866424,-2.688474,-1.212201,0.396345
3853,-0.135128,-0.014706,0.873501,-2.627400,-1.273275,0.350540
3858,-0.128783,-0.013730,0.864959,-2.719010,-1.120592,0.365808
3864,-0.131223,-0.010801,0.868132,-2.703742,-1.151128,0.320003
3869,-0.130003,-0.015194,0.865692,-2.673205,-1.135860,0.442150
3875,-0.131223,-0.013974,0.876918,-2.642668,-1.288543,0.442150
3880,-0.129759,-0.010801,0.874966,-2.764815,-1.151128,0.396345
3886,-0.129027,-0.013730,0.877406,-2.734278,-1.105323,0.304735
3891,-0.135861,-0.009581,0.877162,-2.688474,-1.242738,0.213125
3897,-0.128051,-0.012998,0.868132,-2.764815,-1.166397,0.365808
3903,-0.131468,-0.010313,0.869840,-2.688474,-1.258006,0.411613
3908,-0.134396,-0.019831,0.875454,-2.688474,-1.028982,0.365808
3914,-0.136837,-0.008849,0.867400,-2.657937,-0.967909,0.243662
3919,-0.132200,-0.022516,0.871793,-2.795351,-1.120592,0.335272
3925,-0.129515,-0.013486,0.870085,-2.734278,-1.242738,0.533760
3930,-0.128783,-0.021296,0.860810,-2.780083,-1.090055,0.365808
3936,-0.124390,-0.013974,0.875210,-2.627400,-0.998445,0.442150
3941,-0.132200,-0.011289,0.871061,-2.703742,-1.105323,0.518491
3947,-0.130247,-0.012021,0.871061,-2.657937,-1.044250,0.579565
3953,-0.138545,-0.012021,0.868620,-2.734278,-1.288543,0.442150
3958,-0.127319,-0.013242,0.864471,-2.749546,-0.983177,0.457418
3964,-0.126342,-0.007872,0.876674,-2.612132,-1.120592,0.350540
3969,-0.133176,-0.008361,0.876186,-2.764815,-1.044250,0.442150
3975,-0.133664,-0.013486,0.875942,-2.551059,-1.090055,0.304735
3980,-0.126098,-0.014462,0.862031,-2.764815,-1.166397,0.381077
3986,-0.139766,-0.013974,0.869352,-2.764815,-1.028982,0.472686
3991,-0.129515,-0.007872,0.871061,-2.810620,-1.181665,0.350540
3997,-0.129759,-0.012021,0.865203,-2.719010,-1.028982,0.381077
4003,-0.134396,-0.011045,0.877162,-2.734278,-1.090055,0.197857
4008,-0.138057,-0.016170,0.873257,-2.825888,-0.983177,0.381077
4014,-0.130491,-0.010069,0.872037,-2.673205,-1.028982,0.457418
4019,-0.130491,-0.010557,0.878383,-2.825888,-1.151128,0.472686
4025,-0.132444,-0.012265,0.871793,-2.795351,-1.212201,0.274199
4030,-0.133420,-0.011289,0.873013,-2.734278,-1.181665,0.457418
4036,-0.126830,-0.016170,0.872769,-2.688474,-1.090055,0.396345
4041,-0.124390,-0.021540,0.869352,-2.764815,-1.105323,0.442150
4047,-0.136105,-0.013730,0.873013,-2.688474,-1.120592,0.320003
4052,-0.129271,-0.019343,0.873989,-2.719010,-1.242738,0.457418
4058,-0.131223,-0.008605,0.872281,-2.719010,-1.181665,0.320003
4064,-0.131223,-0.012265,0.873013,-2.703742,-0.906835,0.533760
4069,-0.134396,-0.011289,0.878871,-2.856425,-1.151128,0.472686
4075,-0.131712,-0.019343,0.879359,-2.749546,-1.151128,0.274199
4080,-0.131223,-0.011045,0.879359,-2.642668,-1.227470,0.167320
4086,-0.128783,-0.011045,0.867888,-2.734278,-1.074787,0.426881
4091,-0.133176,-0.011289,0.865447,-2.780083,-0.937372,0.335272
4097,-0.129759,-0.012998,0.873013,-2.719010,-0.967909,0.213125
4102,-0.130247,-0.017635,0.873989,-2.673205,-1.120592,0.289467
4108,-0.127563,-0.012510,0.866668,-2.703742,-1.074787,0.487955
4114,-0.129759,-0.013486,0.866424,-2.810620,-1.028982,0.518491
4119,-0.129759,-0.016414,0.872525,-2.734278,-1.059519,0.426881
4125,-0.129759,-0.012510,0.870573,-2.719010,-1.181665,0.350540
4130,-0.125122,-0.015926,0.872525,-2.551059,-1.028982,0.289467
4136,-0.133176,-0.013242,0.870573,-2.871693,-1.135860,0.335272
4141,-0.129271,-0.010801,0.873501,-2.780083,-1.151128,0.518491
4147,-0.127807,-0.008117,0.863251,-2.856425,-1.120592,0.518491
4152,-0.131712,-0.014218,0.878871,-2.764815,-0.983177,0.289467
4158,-0.130247,-0.012021,0.865936,-2.673205,-1.090055,0.457418
4164,-0.132200,-0.008849,0.871793,-2.764815,-0.891567,0.457418
4169,-0.135372,-0.012998,0.875454,-2.749546,-0.891567,0.518491
4175,-0.130003,-0.013486,0.879847,-2.657937,-0.998445,0.442150
4180,-0.130003,-0.009337,0.873989,-2.810620,-1.120592,0.442150
4186,-0.130247,-0.010801,0.872281,-2.780083,-1.181665,0.243662
4191,-0.127563,-0.009581,0.868132,-2.719010,-1.074787,0.381077
4197,-0.128295,-0.015926,0.875210,-2.795351,-0.937372,0.426881
4202,-0.130735,-0.015194,0.879603,-2.673205,-1.074787,0.579565
4208,-0.129515,-0.004456,0.873989,-2.719010,-1.212201,0.289467
4213,-0.130247,-0.012510,0.864715,-2.749546,-1.090055,0.442150
4219,-0.137569,-0.015682,0.874966,-2.673205,-1.044250,0.274199
4225,-0.132444,-0.017879,0.878138,-2.764815,-1.151128,0.533760
4230,-0.133664,-0.004944,0.871061,-2.612132,-1.090055,0.320003
4236,-0.130979,-0.009825,0.864959,-2.841157,-1.013714,0.396345
4241,-0.124146,-0.008361,0.870817,-2.795351,-1.120592,0.442150
4247,-0.132688,-0.014462,0.877406,-2.596863,-1.166397,0.304735
4252,-0.137325,-0.006896,0.871061,-2.795351,-1.227470,0.258930
4258,-0.135861,-0.019831,0.876430,-2.780083,-1.105323,0.487955
4263,-0.138789,-0.011289,0.877894,-2.795351,-1.120592,0.426881
4269,-0.134396,-0.014462,0.870817,-2.749546,-0.937372,0.564296
4275,-0.130979,-0.010069,0.875698,-2.871693,-1.090055,0.396345
4280,-0.130003,-0.016903,0.878383,-2.627400,-0.998445,0.381077
4286,-0.130979,-0.011289,0.877162,-2.734278,-1.120592,0.197857
4291,-0.130979,-0.014218,0.874966,-2.657937,-0.983177,0.381077
4297,-0.131468,-0.010801,0.876918,-2.703742,-1.151128,0.442150
4302,-0.133908,-0.009825,0.872525,-2.551059,-0.952640,0.426881
4308,-0.135617,-0.010313,0.876674,-2.749546,-1.044250,0.335272
4313,-0.130003,-0.015438,0.871549,-2.688474,-1.196933,0.335272
4319,-0.133664,-0.015438,0.870329,-2.856425,-1.044250,0.396345
4325,-0.130979,-0.007872,0.877894,-2.764815,-1.028982,0.289467
4330,-0.126098,-0.017635,0.866668,-2.688474,-0.983177,0.350540
4336,-0.131712,-0.012754,0.865203,-2.642668,-1.273275,0.472686
4341,-0.134152,-0.007872,0.869840,-2.703742,-1.212201,0.213125
4347,-0.125122,-0.010801,0.878383,-2.688474,-1.151128,0.426881
4352,-0.129271,-0.010069,0.871793,-2.841157,-0.983177,0.442150
4358,-0.134640,-0.011533,0.867156,-2.719010,-1.166397,0.381077
4363,-0.133908,-0.016170,0.870085,-2.581595,-1.120592,0.396345
4369,-0.135372,-0.004944,0.864715,-2.749546,-1.227470,0.442150
4375,-0.132200,-0.013730,0.873501,-2.627400,-0.967909,0.350540
4380,-0.131468,-0.010069,0.868376,-2.719010,-1.028982,0.258930
4386,-0.129759,-0.017147,0.870329,-2.688474,-1.151128,0.396345
4391,-0.132688,-0.010801,0.867400,-2.719010,-1.105323,0.411613
4397,-0.136349,-0.015438,0.874722,-2.749546,-1.090055,0.411613
4402,-0.134396,-0.018611,0.878627,-2.795351,-1.151128,0.243662
4408,-0.131712,-0.010069,0.877162,-2.764815,-1.273275,0.426881
4413,-0.129515,-0.012265,0.862519,-2.841157,-1.090055,0.381077
4419,-0.130247,-0.012998,0.872769,-2.764815,-1.090055,0.121516
4424,-0.131468,-0.007872,0.872525,-2.703742,-1.212201,0.442150
4430,-0.134884,-0.014950,0.874722,-2.612132,-1.074787,0.350540
4436,-0.128539,-0.013486,0.871305,-2.841157,-1.181665,0.228394
4441,-0.134884,-0.015194,0.869108,-2.719010,-0.922104,0.197857
4447,-0.131468,-0.015438,0.872769,-2.749546,-1.166397,0.549028
4452,-0.129271,-0.006652,0.874722,-2.749546,-1.319080,0.381077
4458,-0.130003,-0.005432,0.864227,-2.719010,-1.227470,0.503223
4463,-0.137569,-0.011533,0.870573,-2.688474,-1.273275,0.258930
4469,-0.138057,-0.011289,0.871793,-2.780083,-0.937372,0.472686
4474,-0.130003,-0.008849,0.875454,-2.734278,-1.303811,0.320003
4480,-0.130003,-0.011045,0.873501,-2.657937,-1.151128,0.350540
4486,-0.131956,-0.010801,0.865447,-2.764815,-1.044250,0.304735
4491,-0.128051,-0.010557,0.882043,-2.673205,-1.120592,0.213125
4497,-0.131712,-0.012998,0.872037,-2.780083,-0.967909,0.304735
4502,-0.132932,-0.012998,0.873501,-2.825888,-1.074787,0.289467
4508,-0.133176,-0.006652,0.869596,-2.810620,-1.105323,0.487955
4513,-0.136349,-0.013974,0.875942,-2.719010,-1.181665,0.304735
4519,-0.125610,-0.011289,0.870573,-2.825888,-1.166397,0.411613
4524,-0.130735,-0.011045,0.870817,-2.719010,-1.090055,0.335272
4530,-0.130003,-0.014218,0.874966,-2.734278,-1.196933,0.274199
4536,-0.134152,-0.010801,0.877162,-2.719010,-1.212201,0.304735
4541,-0.134152,-0.013974,0.867400,-2.764815,-1.517568,0.472686
4547,-0.132200,-0.015194,0.872769,-2.734278,-1.135860,0.335272
4552,-0.130247,-0.013486,0.870329,-2.856425,-0.967909,0.381077
4558,-0.127807,-0.011777,0.867644,-2.810620,-0.967909,0.350540
4563,-0.130491,-0.014706,0.874722,-2.825888,-1.013714,0.167320
4569,-0.131712,-0.011533,0.865936,-2.703742,-1.120592,0.335272
4574,-0.132200,-0.021540,0.873989,-2.780083,-1.090055,0.442150
4580,-0.137813,-0.023980,0.871305,-2.841157,-0.876299,0.304735
4585,-0.128783,-0.019343,0.873013,-2.780083,-1.074787,0.442150
4591,-0.134640,-0.016170,0.870085,-2.749546,-1.120592,0.426881
4597,-0.127807,-0.008849,0.872037,-2.764815,-1.196933,0.243662
4602,-0.135617,-0.013486,0.872281,-2.719010,-0.998445,0.411613
4608,-0.138545,-0.014706,0.875942,-2.902230,-1.044250,0.197857
4613,-0.133176,-0.003968,0.877894,-2.749546,-1.074787,0.381077
4619,-0.129271,-0.009581,0.873013,-2.856425,-1.090055,0.197857
4624,-0.131468,-0.015438,0.871061,-2.856425,-1.242738,0.213125
4630,-0.134884,-0.007384,0.871305,-2.780083,-0.998445,0.320003
4635,-0.128783,-0.004456,0.871549,-2.673205,-1.090055,0.320003
4641,-0.128295,-0.014950,0.878871,-2.749546,-1.212201,0.411613
4647,-0.135372,-0.017147,0.872037,-2.657937,-1.196933,0.381077
4652,-0.128539,-0.007872,0.872525,-2.734278,-1.135860,0.411613
4658,-0.126586,-0.009093,0.869840,-2.734278,-0.983177,0.487955
4663,-0.128539,-0.012265,0.875454,-2.825888,-1.044250,0.228394
4669,-0.132932,-0.012265,0.874233,-2.810620,-1.028982,0.457418
4674,-0.130979,-0.015926,0.864715,-2.642668,-1.196933,0.274199
4680,-0.130003,-0.009581,0.877894,-2.810620,-0.967909,0.594833
4685,-0.133420,-0.011533,0.883508,-2.749546,-1.166397,0.396345
4691,-0.129759,-0.012998,0.883752,-2.596863,-1.135860,0.289467
4697,-0.130247,-0.009825,0.874233,-2.642668,-1.044250,0.243662
4702,-0.135128,-0.011045,0.868376,-2.795351,-1.090055,0.396345
4708,-0.135617,-0.006652,0.865936,-2.688474,-1.181665,0.426881
4713,-0.132200,-0.013242,0.872037,-2.749546,-1.425958,0.213125
4719,-0.129759,-0.010557,0.867644,-2.764815,-1.196933,0.320003
4724,-0.133664,-0.013730,0.870573,-2.795351,-1.196933,0.503223
4730,-0.134152,-0.006164,0.866668,-2.871693,-1.166397,0.625369
4735,-0.133664,-0.014950,0.870817,-2.688474,-1.135860,0.426881
4741,-0.130735,-0.011045,0.871793,-2.795351,-1.074787,0.426881
4747,-0.132444,-0.014462,0.873501,-2.703742,-1.059519,0.365808
4752,-0.132200,-0.018611,0.878138,-2.734278,-1.090055,0.350540
4758,-0.131223,-0.019831,0.885704,-2.703742,-1.181665,0.487955
4763,-0.131956,-0.017879,0.861543,-2.703742,-1.166397,0.381077
4769,-0.131223,-0.012998,0.862031,-2.688474,-1.212201,0.213125
4774,-0.125610,-0.014462,0.873013,-2.703742,-0.983177,0.304735
4780,-0.136105,-0.013242,0.878138,-2.764815,-1.135860,0.258930
4785,-0.136105,-0.011777,0.870573,-2.734278,-1.258006,0.197857
4791,-0.136105,-0.015194,0.880091,-2.673205,-1.013714,0.213125
4796,-0.137325,-0.008361,0.873501,-2.749546,-1.105323,0.228394
4802,-0.128783,-0.010313,0.873013,-2.627400,-1.120592,0.274199
4808,-0.130979,-0.016170,0.875698,-2.719010,-1.059519,0.381077
4813,-0.133664,-0.010557,0.870329,-2.749546,-0.967909,0.396345
4819,-0.132932,-0.014462,0.872525,-2.627400,-1.090055,0.442150
4824,-0.130491,-0.011533,0.869840,-2.841157,-1.105323,0.320003
4830,-0.130979,-0.014950,0.871061,-2.688474,-1.242738,0.350540
4835,-0.132444,-0.012754,0.873501,-2.734278,-1.196933,0.228394
4841,-0.134152,-0.006164,0.868376,-2.657937,-1.074787,0.381077
4846,-0.130735,-0.010801,0.869352,-2.780083,-1.166397,0.335272
4852,-0.134396,-0.012021,0.879603,-2.764815,-1.120592,0.457418
4858,-0.127563,-0.012021,0.878871,-2.734278,-1.273275,0.320003
4863,-0.132200,-0.014218,0.873257,-2.612132,-1.196933,0.411613
4869,-0.135617,-0.009825,0.872037,-2.749546,-0.983177,0.381077
4874,-0.139033,-0.009825,0.879603,-2.810620,-1.105323,0.442150
4880,-0.132444,-0.008117,0.872525,-2.795351,-1.120592,0.381077
4885,-0.135128,-0.012754,0.870817,-2.688474,-1.120592,0.472686
4891,-0.131956,-0.008849,0.875454,-2.810620,-1.166397,0.243662
4896,-0.126342,-0.013242,0.867888,-2.596863,-0.967909,0.381077
4902,-0.130003,-0.010069,0.869596,-2.734278,-1.044250,0.365808
4907,-0.136349,-0.013974,0.870573,-2.734278,-1.135860,0.335272
4913,-0.130003,-0.011289,0.873501,-2.703742,-1.044250,0.487955
4919,-0.130491,-0.013974,0.860810,-2.734278,-1.196933,0.320003
4924,-0.131468,-0.013974,0.867400,-2.764815,-1.166397,0.549028
4930,-0.133176,-0.010557,0.871793,-2.657937,-1.120592,0.335272
4935,-0.132200,-0.011533,0.871549,-2.810620,-1.059519,0.411613
4941,-0.131468,-0.008361,0.868620,-2.795351,-1.135860,0.487955
4946,-0.131956,-0.010069,0.863251,-2.841157,-0.983177,0.426881
4952,-0.139766,-0.013486,0.871549,-2.581595,-1.120592,0.457418
4958,-0.130247,-0.008605,0.871793,-2.719010,-1.120592,0.365808
4963,-0.126342,-0.016414,0.873745,-2.642668,-1.120592,0.335272
4969,-0.131468,-0.010313,0.871793,-2.902230,-1.273275,0.381077
4974,-0.132932,-0.012998,0.866668,-2.688474,-0.937372,0.258930
4980,-0.130491,-0.010313,0.876430,-2.719010,-1.013714,0.411613
4985,-0.130491,-0.016659,0.876430,-2.719010,-1.120592,0.564296
4991,-0.132444,-0.013730,0.873257,-2.795351,-1.212201,0.320003
4996,-0.130735,-0.009093,0.872525,-2.749546,-1.166397,0.396345
5002,-0.128539,-0.013730,0.872769,-2.841157,-0.983177,0.381077
5007,-0.125610,-0.009337,0.868376,-2.764815,-1.044250,0.121516
5013,-0.128051,-0.007140,0.876674,-2.703742,-1.105323,0.365808
5019,-0.128051,-0.006408,0.868620,-2.612132,-1.074787,0.579565
5024,-0.135372,-0.004456,0.868132,-2.764815,-1.059519,0.289467
5030,-0.129027,-0.013242,0.870573,-2.764815,-0.891567,0.320003
5035,-0.138301,-0.014218,0.875942,-2.810620,-1.013714,0.213125
5041,-0.134884,-0.013242,0.879603,-2.734278,-1.135860,0.487955
5046,-0.125122,-0.017147,0.871549,-2.673205,-0.906835,0.304735
5052,-0.134640,-0.014462,0.877894,-2.703742,-0.952640,0.442150
5057,-0.130979,-0.008849,0.876430,-2.581595,-1.120592,0.472686
5063,-0.134640,-0.010069,0.873745,-2.612132,-1.166397,0.533760
5069,-0.130247,-0.015926,0.874478,-2.673205,-1.151128,0.274199
5074,-0.126342,-0.012998,0.862275,-2.764815,-1.227470,0.335272
5080,-0.130979,-0.010557,0.869840,-2.825888,-1.242738,0.411613
5085,-0.129759,-0.014218,0.873501,-2.734278,-0.967909,0.258930
5091,-0.135128,-0.012021,0.879115,-2.825888,-1.166397,0.457418
5096,-0.130003,-0.012021,0.871549,-2.642668,-1.074787,0.381077
5102,-0.128051,-0.013486,0.870573,-2.810620,-1.120592,0.411613
5107,-0.128783,-0.012998,0.869108,-2.825888,-1.013714,0.503223
5113,-0.130003,-0.018123,0.872281,-2.596863,-1.196933,0.426881
5118,-0.132200,-0.018855,0.856906,-2.657937,-0.952640,0.365808
5124,-0.134152,-0.012754,0.870085,-2.673205,-1.090055,0.472686
5130,-0.128051,-0.014950,0.872525,-2.596863,-1.028982,0.396345
5135,-0.133176,-0.011533,0.867888,-2.688474,-1.135860,0.549028
5141,-0.130979,-0.016170,0.857394,-2.764815,-1.028982,0.228394
5146,-0.126830,-0.014218,0.869108,-2.764815,-1.212201,0.442150
5152,-0.130491,-0.013242,0.865936,-2.810620,-0.937372,0.335272
5157,-0.129515,-0.019343,0.870573,-2.703742,-1.135860,0.442150
5163,-0.129515,-0.009825,0.868864,-2.780083,-1.120592,0.610101
5168,-0.131223,-0.014462,0.876918,-2.795351,-1.227470,0.457418
5174,-0.133908,-0.011533,0.861787,-2.688474,-1.028982,0.258930
5180,-0.131712,-0.010313,0.875942,-2.688474,-1.105323,0.304735
5185,-0.125122,-0.002015,0.873989,-2.856425,-1.303811,0.381077
5191,-0.132444,-0.014950,0.877162,-2.612132,-1.120592,0.320003
5196,-0.127807,-0.014218,0.867156,-2.749546,-1.074787,0.396345
5202,-0.134640,-0.017635,0.869352,-2.688474,-1.074787,0.396345
5207,-0.129027,-0.008361,0.867156,-2.841157,-1.105323,0.457418
5213,-0.132932,-0.011777,0.874966,-2.825888,-1.074787,0.182589
5218,-0.131712,-0.016170,0.865203,-2.734278,-0.922104,0.381077
5224,-0.139766,-0.010313,0.874722,-2.749546,-1.151128,0.503223
5230,-0.131712,-0.014706,0.872281,-2.688474,-1.212201,0.442150
5235,-0.135128,-0.016414,0.866424,-2.764815,-1.242738,0.442150
5241,-0.129271,-0.016170,0.871793,-2.734278,-1.258006,0.274199
5246,-0.131956,-0.014462,0.880579,-2.764815,-1.288543,0.564296
5252,-0.128783,-0.011045,0.876186,-2.841157,-1.258006,0.258930
5257,-0.134396,-0.015926,0.879115,-2.856425,-1.166397,0.457418
5263,-0.134152,-0.010801,0.872037,-2.795351,-1.242738,0.258930
5268,-0.137325,-0.013242,0.873501,-2.764815,-1.151128,0.549028
5274,-0.130979,-0.015438,0.865203,-2.688474,-0.983177,0.503223
5279,-0.132444,-0.010069,0.876186,-2.703742,-0.967909,0.365808
5285,-0.131712,-0.014950,0.868132,-2.780083,-1.105323,0.320003
5291,-0.130491,-0.012510,0.875698,-2.749546,-0.952640,0.243662
5296,-0.131223,-0.013242,0.874966,-2.795351,-1.181665,0.289467
5302,-0.132688,-0.010801,0.873013,-2.825888,-1.135860,0.655906
5307,-0.130979,-0.011533,0.873745,-2.703742,-0.967909,0.152052
5313,-0.133664,-0.010801,0.873013,-2.734278,-1.028982,0.335272
5318,-0.133908,-0.005676,0.875454,-2.734278,-1.028982,0.503223
5324,-0.131223,-0.013974,0.874478,-2.596863,-1.028982,0.289467
5329,-0.135617,-0.011289,0.871549,-2.825888,-1.090055,0.426881
5335,-0.133176,-0.010557,0.869840,-2.810620,-0.998445,0.487955
5341,-0.134152,-0.013730,0.865203,-2.642668,-0.998445,0.350540
5346,-0.130491,-0.010313,0.873501,-2.841157,-1.151128,0.411613
5352,-0.129759,-0.009581,0.865447,-2.642668,-1.090055,0.533760
5357,-0.136593,-0.011777,0.872525,-2.596863,-1.212201,0.381077
5363,-0.132688,-0.015682,0.866668,-2.841157,-1.258006,0.365808
5368,-0.128539,-0.015438,0.878383,-2.703742,-1.166397,0.487955
5374,-0.133420,-0.011777,0.867888,-2.642668,-1.105323,0.426881
5379,-0.133664,-0.010069,0.873257,-2.520522,-1.166397,0.381077
5385,-0.137569,-0.015438,0.870329,-2.612132,-1.135860,0.182589
5391,-0.129271,-0.015438,0.867888,-2.703742,-0.967909,0.442150
5396,-0.130979,-0.009581,0.875210,-2.734278,-1.074787,0.304735
5402,-0.132200,-0.015194,0.868864,-2.673205,-1.028982,0.258930
5407,-0.133176,-0.011533,0.870573,-2.703742,-0.998445,0.503223
5413,-0.132444,-0.017635,0.872769,-2.749546,-1.059519,0.335272
5418,-0.134884,-0.010313,0.863739,-2.703742,-0.983177,0.518491
5424,-0.135372,-0.015194,0.869108,-2.703742,-0.998445,0.518491
5429,-0.135617,-0.015438,0.871793,-2.703742,-1.013714,0.396345
5435,-0.129271,-0.009337,0.872769,-2.841157,-1.013714,0.472686
5440,-0.133420,-0.013730,0.878383,-2.657937,-1.258006,0.457418
5446,-0.134884,-0.012754,0.874233,-2.657937,-1.212201,0.274199
5452,-0.131712,-0.010313,0.876430,-2.596863,-1.166397,0.197857
5457,-0.130003,-0.014706,0.871305,-2.703742,-1.364884,0.289467
5463,-0.132200,-0.015926,0.871061,-2.581595,-1.120592,0.350540
5468,-0.132932,-0.013242,0.875454,-2.657937,-1.059519,0.320003
5474,-0.131956,-0.014950,0.871793,-2.734278,-1.059519,0.274199
5479,-0.129271,-0.019343,0.867156,-2.642668,-1.105323,0.350540
5485,-0.130003,-0.008605,0.877894,-2.688474,-1.074787,0.320003
5490,-0.128783,-0.015194,0.871061,-2.780083,-0.967909,0.304735
5496,-0.130491,-0.013242,0.877162,-2.932766,-1.120592,0.457418
5502,-0.128539,-0.012510,0.883264,-2.703742,-1.120592,0.518491
5507,-0.130491,-0.014218,0.875698,-2.703742,-1.090055,0.365808
5513,-0.132688,-0.018123,0.876186,-2.841157,-1.059519,0.274199
5518,-0.133176,-0.012021,0.867644,-2.703742,-1.196933,0.472686
5524,-0.130247,-0.009337,0.873989,-2.749546,-1.227470,0.487955
5529,-0.131956,-0.009581,0.874478,-2.810620,-1.013714,0.381077
5535,-0.133420,-0.011289,0.877894,-2.627400,-1.303811,0.335272
5540,-0.125854,-0.012021,0.868132,-2.719010,-1.181665,0.549028
5546,-0.130003,-0.008117,0.870573,-2.856425,-1.212201,0.411613
5552,-0.132932,-0.007872,0.878383,-2.719010,-1.074787,0.274199
5557,-0.138789,-0.013730,0.872281,-2.734278,-1.090055,0.487955
5563,-0.134396,-0.011289,0.870573,-2.810620,-1.135860,0.579565
5568,-0.134152,-0.010557,0.869840,-2.764815,-1.120592,0.411613
5574,-0.133420,-0.008605,0.866180,-2.719010,-1.013714,0.472686
5579,-0.130247,-0.015926,0.861787,-2.886961,-0.998445,0.228394
5585,-0.130003,-0.008361,0.870085,-2.810620,-1.181665,0.258930
5590,-0.132200,-0.008605,0.878138,-2.673205,-1.135860,0.335272
5596,-0.129759,-0.007140,0.873745,-2.749546,-0.983177,0.304735
5601,-0.130003,-0.009581,0.870085,-2.673205,-1.074787,0.411613
5607,-0.132932,-0.016903,0.870573,-2.719010,-1.227470,0.365808
5613,-0.116092,-0.029349,0.877162,-2.886961,-1.074787,0.396345
5618,-0.113651,-0.000551,0.844703,-2.459449,-0.769421,0.442150
5624,-0.099984,-0.031546,0.856417,-2.566327,-0.967909,0.258930
5629,-0.110235,-0.014950,0.797355,-2.596863,-1.364884,0.350540
5635,-0.096811,-0.023736,0.816880,-2.917498,-1.425958,0.197857
5640,-0.104621,-0.011777,0.864471,-2.688474,-0.861031,0.442150
5646,-0.091198,-0.016659,0.841774,-2.444180,-0.570933,0.320003
5651,-0.134152,-0.006896,0.861299,-2.306766,-0.479323,0.426881
5657,-0.106086,-0.010557,0.828107,-2.459449,-0.280835,0.442150
5663,-0.144159,-0.012998,0.862275,-2.474717,-0.601470,0.442150
5668,-0.116092,-0.018123,0.861787,-2.551059,-0.433518,0.381077
5674,-0.134640,-0.009825,0.861299,-2.367839,-0.937372,0.304735
5679,-0.123170,-0.019587,0.858370,-2.673205,-0.830494,0.304735
5685,-0.137813,-0.009581,0.879115,-2.764815,-0.845762,0.304735
5690,-0.123658,-0.021540,0.885948,-2.612132,-0.952640,0.258930
5696,-0.122681,-0.010069,0.873013,-2.612132,-0.906835,0.594833
5701,-0.130979,-0.008605,0.857638,-2.703742,-0.998445,0.381077
5707,-0.127807,-0.010313,0.867156,-2.780083,-0.937372,0.365808
5713,-0.135372,-0.012265,0.876918,-2.749546,-1.044250,0.350540
5718,-0.126586,-0.014950,0.879603,-2.810620,-0.891567,0.304735
5724,-0.129027,-0.012510,0.872281,-2.795351,-1.135860,0.396345
5729,-0.128783,-0.016659,0.864959,-2.688474,-0.876299,0.350540
5735,-0.129759,-0.011533,0.871549,-2.719010,-1.151128,0.442150
5740,-0.130735,-0.013974,0.868132,-2.642668,-1.074787,0.335272
5746,-0.130491,-0.009581,0.866668,-2.688474,-0.952640,0.350540
5751,-0.135128,-0.015194,0.867400,-2.688474,-1.059519,0.350540
5757,-0.128051,-0.014218,0.883264,-2.749546,-0.967909,0.457418
5762,-0.132444,-0.013486,0.869108,-2.673205,-1.090055,0.381077
5768,-0.133908,-0.013730,0.867644,-2.719010,-1.059519,0.350540
5774,-0.130735,-0.011777,0.869840,-2.627400,-0.937372,0.320003
5779,-0.128783,-0.014462,0.868864,-2.474717,-0.967909,0.335272
5785,-0.130247,-0.013242,0.865692,-2.627400,-0.983177,0.335272
5790,-0.132688,-0.011533,0.872525,-2.642668,-1.120592,0.365808
5796,-0.131712,-0.010069,0.871549,-2.642668,-1.013714,0.396345
5801,-0.130003,-0.016414,0.876430,-2.719010,-0.998445,0.320003
5807,-0.130491,-0.018367,0.871061,-2.703742,-1.135860,0.304735
5812,-0.131223,-0.016170,0.871061,-2.719010,-0.952640,0.625369
5818,-0.130735,-0.012021,0.869596,-2.795351,-1.242738,0.411613
5824,-0.135617,-0.008849,0.879359,-2.703742,-1.181665,0.365808
5829,-0.130979,-0.011289,0.869840,-2.795351,-1.013714,0.350540
5835,-0.136593,-0.009825,0.866668,-2.764815,-1.090055,0.411613
5840,-0.136593,-0.008361,0.867400,-2.841157,-1.120592,0.335272
5846,-0.133420,-0.011289,0.874722,-2.780083,-1.273275,0.289467
5851,-0.133664,-0.012998,0.871549,-2.764815,-1.151128,0.396345
5857,-0.132932,-0.015194,0.860810,-2.596863,-1.044250,0.335272
5862,-0.138301,-0.011289,0.876674,-2.764815,-0.922104,0.350540
5868,-0.129027,-0.010313,0.871549,-2.825888,-1.059519,0.381077
5874,-0.136105,-0.013974,0.864715,-2.703742,-1.105323,0.457418
5879,-0.134640,-0.005188,0.865936,-2.795351,-1.242738,0.258930
5885,-0.131956,-0.014706,0.874478,-2.825888,-1.273275,0.320003
5890,-0.128295,-0.011777,0.864959,-2.551059,-1.242738,0.365808
5896,-0.137081,-0.013242,0.862763,-2.719010,-1.181665,0.396345
5901,-0.133176,-0.011045,0.874966,-2.657937,-1.013714,0.503223
5907,-0.133420,-0.012754,0.874966,-2.780083,-1.151128,0.518491
5912,-0.134396,-0.013486,0.868132,-2.657937,-1.151128,0.289467
5918,-0.131712,-0.014462,0.873013,-2.764815,-1.074787,0.258930
5924,-0.129271,-0.017635,0.877406,-2.688474,-1.105323,0.365808
5929,-0.138057,-0.008849,0.868132,-2.642668,-0.998445,0.350540
5935,-0.130003,-0.009825,0.864715,-2.673205,-1.090055,0.381077
5940,-0.130003,-0.017879,0.877894,-2.810620,-1.135860,0.197857
5946,-0.129759,-0.012265,0.871061,-2.719010,-1.013714,0.335272
5951,-0.133420,-0.015682,0.880091,-2.749546,-1.303811,0.442150
5957,-0.125610,-0.013974,0.873989,-2.810620,-1.059519,0.442150
5962,-0.140010,-0.010069,0.869108,-2.719010,-1.242738,0.396345
5968,-0.134152,-0.012265,0.868864,-2.780083,-0.967909,0.243662
5973,-0.137813,-0.012265,0.872769,-2.780083,-0.861031,0.304735
5979,-0.130003,-0.011533,0.882532,-2.856425,-1.013714,0.396345
5985,-0.130735,-0.015926,0.870817,-2.810620,-1.044250,0.258930
5990,-0.136593,-0.014950,0.870085,-2.719010,-1.013714,0.533760
5996,-0.129271,-0.015438,0.884972,-2.688474,-1.166397,0.152052
6001,-0.130247,-0.011533,0.872037,-2.703742,-1.212201,0.442150
6007,-0.131712,-0.008361,0.861787,-2.673205,-1.227470,0.472686
6012,-0.134884,-0.008361,0.873501,-2.673205,-0.998445,0.335272
6018,-0.130247,-0.015194,0.872769,-2.688474,-1.166397,0.457418
6023,-0.129759,-0.017635,0.877406,-2.688474,-1.135860,0.442150
6029,-0.132688,-0.013486,0.876430,-2.780083,-1.303811,0.320003
6035,-0.134396,-0.019099,0.863251,-2.764815,-1.074787,0.350540
6040,-0.136349,-0.014950,0.873989,-2.825888,-1.074787,0.487955
6046,-0.132688,-0.013486,0.865936,-2.764815,-1.212201,0.289467
6051,-0.132688,-0.016170,0.875942,-2.764815,-1.242738,0.213125
6057,-0.129271,-0.014462,0.872281,-2.795351,-1.090055,0.381077
6062,-0.131223,-0.009581,0.877162,-2.749546,-1.288543,0.472686
6068,-0.132688,-0.009581,0.875210,-2.734278,-1.135860,0.472686
6073,-0.129271,-0.013730,0.868132,-2.764815,-1.135860,0.487955
6079,-0.130003,-0.008849,0.870085,-2.749546,-1.059519,0.503223
6085,-0.128783,-0.017391,0.864959,-2.795351,-1.380153,0.381077
6090,-0.127807,-0.014706,0.863251,-2.871693,-1.334348,0.365808
6096,-0.136105,-0.008849,0.870817,-2.749546,-1.090055,0.243662
6101,-0.128295,-0.015926,0.866668,-2.734278,-1.074787,0.381077
6107,-0.134152,-0.012265,0.871549,-2.810620,-0.998445,0.381077
6112,-0.129515,-0.011777,0.866180,-2.795351,-1.242738,0.487955
6118,-0.132688,-0.012510,0.865692,-2.780083,-0.967909,0.426881
6123,-0.139033,-0.009337,0.873989,-2.810620,-1.059519,0.320003
6129,-0.129027,-0.011045,0.875942,-2.734278,-1.105323,0.442150
6134,-0.133908,-0.007872,0.874966,-2.688474,-1.151128,0.472686
6140,-0.130003,-0.010313,0.876674,-2.764815,-1.044250,0.304735
6146,-0.130491,-0.017147,0.874966,-2.780083,-1.120592,0.426881
6151,-0.135861,-0.008361,0.870329,-2.657937,-1.120592,0.411613
6157,-0.128539,-0.012265,0.871793,-2.734278,-1.120592,0.243662
6162,-0.132932,-0.012021,0.875942,-2.886961,-1.196933,0.289467
6168,-0.138301,-0.017635,0.871305,-2.719010,-1.135860,0.396345
6173,-0.130003,-0.015682,0.869352,-2.703742,-1.105323,0.396345
6179,-0.132688,-0.010069,0.866180,-2.749546,-1.105323,0.396345
6184,-0.131223,-0.013974,0.872769,-2.780083,-1.273275,0.304735
6190,-0.134884,-0.014706,0.873501,-2.886961,-1.181665,0.335272
6196,-0.131468,-0.013486,0.873745,-2.841157,-1.090055,0.350540
6201,-0.133664,-0.010069,0.881311,-2.688474,-1.105323,0.426881
6207,-0.134884,-0.012998,0.873501,-2.581595,-1.074787,0.304735
6212,-0.136349,-0.012265,0.871793,-2.703742,-1.151128,0.396345
6218,-0.131712,-0.019099,0.872281,-2.749546,-1.120592,0.274199
6223,-0.132444,-0.013242,0.873013,-2.810620,-1.013714,0.426881
6229,-0.128539,-0.012754,0.860078,-2.749546,-1.151128,0.396345
6234,-0.136837,-0.014706,0.882043,-2.719010,-1.013714,0.442150
6240,-0.130491,-0.012265,0.864959,-2.734278,-1.151128,0.304735
6246,-0.131956,-0.015682,0.872525,-2.764815,-1.135860,0.213125
6251,-0.127807,-0.013242,0.869352,-2.749546,-1.105323,0.442150
6257,-0.132932,-0.008117,0.875210,-2.688474,-1.105323,0.365808
6262,-0.133420,-0.012265,0.869352,-2.673205,-1.028982,0.396345
6268,-0.134152,-0.012265,0.877406,-2.657937,-1.196933,0.335272
6273,-0.136349,-0.019587,0.872037,-2.749546,-1.212201,0.411613
6279,-0.130979,-0.016414,0.873257,-2.780083,-1.135860,0.610101
6284,-0.129515,-0.017147,0.887901,-2.749546,-1.364884,0.396345
6290,-0.124390,-0.024956,0.892294,-2.902230,-1.441226,0.289467
6295,-0.123902,-0.003235,0.903276,-2.764815,-1.410689,0.365808
6301,-0.120241,-0.005676,0.908157,-2.657937,-1.303811,0.442150
6307,-0.136105,-0.003235,0.868620,-2.581595,-1.273275,0.304735
6312,-0.137813,-0.000795,0.870573,-2.535790,-1.074787,0.457418
6318,-0.135617,0.002622,0.844459,-2.719010,-1.044250,0.487955
6323,-0.143182,0.007503,0.851780,-2.657937,-1.166397,0.365808
6329,-0.138545,-0.003235,0.847631,-2.673205,-0.937372,0.411613
6334,-0.142938,-0.001283,0.851048,-2.703742,-0.830494,0.381077
6340,-0.136593,-0.019831,0.859590,-2.780083,-0.693079,0.487955
6345,-0.130491,-0.020075,0.861787,-2.856425,-0.693079,0.304735
6351,-0.140498,-0.013730,0.845435,-2.780083,-0.723616,0.518491
6356,-0.130491,-0.025689,0.865203,-2.917498,-0.876299,0.335272
6362,-0.125610,-0.017391,0.865936,-2.902230,-1.044250,0.258930
6367,-0.121217,-0.030570,0.889853,-2.871693,-0.967909,0.274199
6373,-0.123658,-0.027641,0.888877,-2.871693,-1.212201,0.320003
6379,-0.119021,-0.020807,0.890097,-2.856425,-1.288543,0.457418
6384,-0.124390,-0.025689,0.890829,-2.719010,-1.242738,0.350540
6390,-0.125366,-0.004700,0.891318,-2.841157,-1.334348,0.564296
6395,-0.126098,-0.014950,0.893270,-2.795351,-1.395421,0.350540
6401,-0.117800,-0.015194,0.888633,-2.688474,-1.319080,0.289467
6406,-0.135861,-0.007140,0.881555,-2.795351,-1.395421,0.365808
6412,-0.134396,-0.005920,0.877894,-2.703742,-1.227470,0.335272
6417,-0.137325,0.001158,0.859102,-2.627400,-1.349616,0.304735
6423,-0.139033,-0.002015,0.863983,-2.551059,-0.983177,0.426881
6428,-0.136837,-0.004944,0.845191,-2.520522,-0.922104,0.213125
6434,-0.136837,-0.001527,0.852268,-2.673205,-0.876299,0.487955
6440,-0.132444,-0.013242,0.854953,-2.673205,-0.891567,0.365808
6445,-0.139766,-0.005188,0.848852,-2.688474,-0.799957,0.411613
6451,-0.139033,-0.005188,0.851048,-2.764815,-0.815226,0.457418
6456,-0.134884,-0.021052,0.858370,-2.749546,-0.693079,0.457418
6462,-0.134884,-0.018123,0.866424,-2.719010,-0.937372,0.442150
6467,-0.125610,-0.024712,0.883996,-2.841157,-1.120592,0.487955
6473,-0.135372,-0.026909,0.878138,-2.917498,-0.830494,0.411613
6478,-0.125610,-0.024224,0.898395,-2.932766,-1.135860,0.289467
6484,-0.125122,-0.024468,0.886436,-2.963303,-1.349616,0.258930
6490,-0.126098,-0.018367,0.891562,-2.810620,-1.273275,0.411613
6495,-0.130003,-0.016903,0.892782,-2.902230,-1.441226,0.320003
6501,-0.123414,-0.019831,0.892538,-2.948034,-1.532836,0.350540
6506,-0.133908,-0.009337,0.875454,-2.596863,-1.395421,0.289467
6512,-0.130735,-0.004944,0.882532,-2.566327,-1.532836,0.304735
6517,-0.136105,-0.001283,0.863251,-2.627400,-1.319080,0.381077
6523,-0.134884,-0.003968,0.875454,-2.596863,-1.334348,0.106247
6528,-0.137813,-0.001771,0.854953,-2.688474,-1.135860,0.304735
6534,-0.141718,0.003110,0.855685,-2.612132,-1.013714,0.442150
6539,-0.139277,-0.010069,0.854221,-2.719010,-1.044250,0.304735
6545,-0.141718,-0.008605,0.853245,-2.612132,-1.013714,0.442150
6551,-0.139521,0.000425,0.853733,-2.703742,-0.891567,0.381077
6556,-0.133908,-0.018855,0.856417,-2.780083,-0.815226,0.442150
6562,-0.122437,-0.029838,0.870085,-2.932766,-1.090055,0.426881
6567,-0.126342,-0.019099,0.870329,-2.871693,-0.861031,0.426881
6573,-0.135128,-0.024956,0.872525,-2.841157,-0.845762,0.503223
6578,-0.132688,-0.018367,0.884484,-2.810620,-0.983177,0.610101
6584,-0.128783,-0.019587,0.872525,-2.749546,-1.135860,0.411613
6589,-0.127563,-0.017879,0.873989,-2.627400,-1.090055,0.411613
6595,-0.140742,-0.019099,0.865203,-2.551059,-1.090055,0.350540
6600,-0.130979,-0.010069,0.872769,-2.703742,-1.151128,0.396345
6606,-0.127075,-0.016659,0.871305,-2.719010,-1.135860,0.335272
6612,-0.123414,-0.010801,0.878627,-2.749546,-1.242738,0.228394
6617,-0.128539,-0.008605,0.873501,-2.719010,-0.998445,0.426881
6623,-0.130979,-0.009093,0.870085,-2.764815,-1.242738,0.304735
6628,-0.131223,-0.015926,0.871061,-2.780083,-1.288543,0.457418
6634,-0.129759,-0.015438,0.874478,-2.764815,-1.028982,0.411613
6639,-0.127075,-0.010801,0.867888,-2.734278,-1.074787,0.304735
6645,-0.129515,-0.014950,0.866180,-2.810620,-1.028982,0.457418
6650,-0.135128,-0.013730,0.869108,-2.764815,-1.303811,0.426881
6656,-0.138057,-0.009093,0.867156,-2.764815,-1.135860,0.320003
6661,-0.133908,-0.010801,0.878871,-2.734278,-1.303811,0.213125
6667,-0.135617,-0.014950,0.874478,-2.841157,-1.044250,0.549028
6673,-0.131712,-0.016414,0.868864,-2.612132,-0.983177,0.182589
6678,-0.132200,-0.012998,0.871061,-2.749546,-1.120592,0.411613
6684,-0.131712,-0.007872,0.873989,-2.642668,-1.090055,0.365808
6689,-0.136593,-0.006652,0.873501,-2.688474,-1.059519,0.503223
6695,-0.135372,-0.012510,0.879603,-2.673205,-0.983177,0.381077
6700,-0.131956,-0.010801,0.871061,-2.719010,-0.952640,0.381077
6706,-0.134396,-0.008605,0.879115,-2.902230,-1.151128,0.442150
6711,-0.130735,-0.013974,0.869596,-2.673205,-1.166397,0.274199
6717,-0.135128,-0.014950,0.886680,-2.749546,-1.059519,0.258930
6723,-0.128295,-0.016659,0.880823,-2.657937,-1.196933,0.426881
6728,-0.135128,-0.013730,0.867888,-2.642668,-1.166397,0.396345
6734,-0.130735,-0.014218,0.879603,-2.566327,-1.059519,0.487955
6739,-0.131223,-0.006896,0.868620,-2.688474,-1.151128,0.472686
6745,-0.133176,-0.010557,0.870085,-2.657937,-0.998445,0.350540
6750,-0.132688,-0.013974,0.873501,-2.657937,-1.090055,0.579565
6756,-0.135617,-0.012510,0.878627,-2.719010,-0.998445,0.533760
6761,-0.130247,-0.014218,0.879847,-2.719010,-1.105323,0.320003
6767,-0.138545,-0.015926,0.876430,-2.871693,-1.319080,0.152052
6773,-0.132688,-0.009825,0.875454,-2.734278,-1.151128,0.457418
6778,-0.130003,-0.011289,0.861054,-2.734278,-0.998445,0.396345
6784,-0.133664,-0.016414,0.875698,-2.749546,-1.013714,0.320003
6789,-0.125854,-0.018611,0.879359,-2.841157,-1.090055,0.411613
6795,-0.131712,-0.012021,0.869840,-2.764815,-0.983177,0.182589
6800,-0.133420,-0.012754,0.872525,-2.825888,-1.044250,0.274199
6806,-0.130003,-0.012998,0.875210,-2.703742,-0.998445,0.549028
6811,-0.132932,-0.013242,0.866912,-2.825888,-1.181665,0.289467
6817,-0.133908,-0.016903,0.875698,-2.612132,-1.151128,0.411613
6823,-0.127807,-0.010801,0.880823,-2.688474,-1.105323,0.426881
6828,-0.135617,0.001402,0.872525,-2.642668,-1.120592,0.289467
6834,-0.135861,0.004574,0.878627,-2.535790,-1.090055,0.381077
6839,-0.142206,-0.005920,0.859102,-2.505254,-0.967909,0.182589
6845,-0.138301,-0.002991,0.855929,-2.459449,-0.983177,0.274199
6850,-0.138789,-0.012265,0.855197,-2.612132,-0.937372,0.350540
6856,-0.142694,-0.009337,0.849096,-2.810620,-1.028982,0.426881
6861,-0.136593,-0.023736,0.877650,-2.657937,-1.044250,0.426881
6867,-0.133420,-0.019099,0.874722,-2.749546,-0.738884,0.365808
6872,-0.132444,-0.022516,0.866180,-2.749546,-1.196933,0.518491
6878,-0.125854,-0.023492,0.888633,-2.673205,-1.288543,0.396345
6883,-0.125610,-0.027641,0.873745,-2.780083,-1.120592,0.381077
6889,-0.116824,-0.022760,0.884240,-2.841157,-1.273275,0.350540
6895,-0.117800,-0.029105,0.895711,-2.841157,-1.227470,0.289467
6900,-0.125854,-0.013974,0.882043,-2.886961,-1.227470,0.228394
6906,-0.122926,-0.014218,0.889609,-2.703742,-1.303811,0.487955
6911,-0.133908,-0.004700,0.883508,-2.688474,-1.563372,0.549028
6917,-0.130003,-0.003723,0.874478,-2.764815,-1.258006,0.564296
6922,-0.130491,-0.004212,0.882043,-2.673205,-1.303811,0.396345
6928,-0.138789,0.002134,0.862763,-2.657937,-1.425958,0.472686
6933,-0.140742,-0.000795,0.874478,-2.749546,-1.258006,0.182589
6939,-0.140010,-0.002259,0.851048,-2.566327,-1.028982,0.442150
6944,-0.138057,0.000914,0.852757,-2.474717,-0.906835,0.549028
6950,-0.141962,-0.007140,0.854953,-2.581595,-0.723616,0.503223
6955,-0.132688,-0.005676,0.854709,-2.780083,-0.708348,0.426881
6961,-0.140498,-0.020075,0.866668,-2.719010,-1.074787,0.304735
6967,-0.133420,-0.019587,0.866424,-2.825888,-0.738884,0.411613
6972,-0.123170,-0.028861,0.883264,-2.825888,-0.861031,0.381077
6978,-0.121949,-0.026421,0.882776,-2.810620,-1.059519,0.274199
6983,-0.123902,-0.028129,0.891318,-2.795351,-0.967909,0.411613
6989,-0.130979,-0.024712,0.892294,-2.841157,-1.196933,0.365808
6994,-0.128295,-0.033743,0.884240,-2.764815,-1.212201,0.304735
7000,-0.124878,-0.017147,0.888145,-2.749546,-1.364884,0.411613
7005,-0.125610,-0.018611,0.890829,-2.795351,-1.212201,0.472686
7011,-0.126342,-0.013242,0.889365,-2.520522,-1.303811,0.335272
7016,-0.128295,-0.004944,0.885460,-2.795351,-1.410689,0.518491
7022,-0.136593,0.002378,0.862275,-2.703742,-1.548104,0.472686
7027,-0.138545,-0.004212,0.866668,-2.581595,-1.273275,0.487955
7033,-0.145623,0.002866,0.860078,-2.657937,-1.242738,0.304735
7039,-0.139277,0.002866,0.851780,-2.627400,-0.922104,0.381077
7044,-0.143426,-0.008605,0.847387,-2.734278,-0.937372,0.411613
7050,-0.136837,-0.000063,0.846411,-2.642668,-0.891567,0.457418
7055,-0.134396,-0.015438,0.860810,-2.688474,-0.922104,0.396345
7061,-0.134396,-0.012998,0.852024,-2.703742,-1.013714,0.487955
7066,-0.132932,-0.013974,0.862519,-2.657937,-0.876299,0.411613
7072,-0.128051,-0.022516,0.874233,-2.764815,-1.028982,0.304735
7077,-0.129759,-0.024224,0.872281,-2.871693,-0.998445,0.381077
7083,-0.121705,-0.029349,0.885704,-2.825888,-0.876299,0.335272
7088,-0.125610,-0.023248,0.885460,-2.856425,-1.288543,0.258930
7094,-0.124878,-0.026177,0.896443,-2.856425,-1.074787,0.350540
7100,-0.118044,-0.017391,0.888389,-2.703742,-1.319080,0.350540
7105,-0.129515,-0.002503,0.893758,-2.841157,-1.395421,0.320003
7111,-0.125610,-0.011289,0.885460,-2.795351,-1.502299,0.396345
7116,-0.122437,-0.018855,0.891318,-2.642668,-1.441226,0.426881
7122,-0.132932,-0.005432,0.873745,-2.688474,-1.410689,0.350540
7127,-0.137325,-0.003723,0.874966,-2.551059,-1.288543,0.350540
7133,-0.134884,-0.005188,0.856417,-2.734278,-1.334348,0.396345
7138,-0.132688,-0.010557,0.862275,-2.520522,-1.166397,0.381077
7144,-0.133176,-0.006164,0.872525,-2.719010,-1.258006,0.411613
7150,-0.138057,-0.009337,0.873989,-2.764815,-1.166397,0.365808
7155,-0.135128,-0.010313,0.879603,-2.688474,-1.135860,0.411613
7161,-0.132688,-0.016170,0.877894,-2.764815,-1.151128,0.350540
7166,-0.133176,-0.005920,0.871061,-2.627400,-1.181665,0.442150
7172,-0.128539,-0.016659,0.871549,-2.566327,-1.028982,0.304735
7177,-0.132932,-0.013730,0.869840,-2.535790,-1.135860,0.320003
7183,-0.133176,-0.006896,0.871305,-2.780083,-1.105323,0.503223
7188,-0.130735,-0.015682,0.875698,-2.612132,-1.196933,0.396345
7194,-0.129271,-0.011533,0.875942,-2.657937,-1.196933,0.243662
7199,-0.135128,-0.011533,0.875210,-2.749546,-0.952640,0.320003
7205,-0.130979,-0.015926,0.873745,-2.780083,-0.891567,0.426881
7211,-0.129027,-0.018123,0.878383,-2.719010,-1.212201,0.426881
7216,-0.132688,-0.004700,0.873257,-2.734278,-1.044250,0.335272
7222,-0.133420,-0.007384,0.868864,-2.703742,-1.151128,0.442150
7227,-0.130979,-0.010313,0.875210,-2.780083,-1.059519,0.518491
7233,-0.131468,-0.017147,0.871061,-2.795351,-1.212201,0.472686
7238,-0.130491,-0.014706,0.866668,-2.810620,-1.212201,0.518491
7244,-0.130979,-0.014462,0.883752,-2.856425,-1.258006,0.350540
7249,-0.129759,-0.008117,0.873013,-2.703742,-1.105323,0.335272
7255,-0.132932,-0.017635,0.867156,-2.703742,-1.196933,0.396345
7260,-0.130735,-0.008605,0.865692,-2.703742,-1.074787,0.426881
7266,-0.131468,-0.010069,0.872037,-2.734278,-1.151128,0.396345
7272,-0.138057,-0.015682,0.872037,-2.657937,-1.059519,0.442150
7277,-0.127563,-0.013730,0.874966,-2.734278,-1.120592,0.350540
7283,-0.130491,-0.013730,0.875210,-2.749546,-1.105323,0.487955
7288,-0.132200,-0.011289,0.871549,-2.764815,-1.120592,0.564296
7294,-0.137081,-0.017391,0.863495,-2.734278,-1.044250,0.533760
7299,-0.133908,-0.011289,0.874966,-2.734278,-1.212201,0.335272
7305,-0.129027,-0.014462,0.871549,-2.642668,-1.028982,0.549028
7310,-0.133176,-0.011533,0.875698,-2.612132,-1.135860,0.457418
7316,-0.133664,-0.010557,0.877650,-2.810620,-1.242738,0.396345
7322,-0.130247,-0.013242,0.870573,-2.795351,-1.258006,0.472686
7327,-0.137081,-0.010801,0.871061,-2.703742,-1.120592,0.243662
7333,-0.129027,-0.011777,0.873501,-2.764815,-1.120592,0.365808
7338,-0.134152,-0.013730,0.864227,-2.719010,-1.044250,0.350540
7344,-0.138301,-0.010801,0.868620,-2.688474,-1.090055,0.411613
7349,-0.130003,-0.011289,0.871549,-2.719010,-1.151128,0.350540
7355,-0.139033,-0.008605,0.865447,-2.688474,-1.181665,0.549028
7360,-0.130979,-0.017147,0.869596,-2.886961,-1.151128,0.320003
7366,-0.130979,-0.015438,0.878871,-2.703742,-1.166397,0.426881
7372,-0.137569,-0.015194,0.877406,-2.780083,-1.074787,0.426881
7377,-0.132200,-0.013730,0.873013,-2.734278,-1.074787,0.258930
7383,-0.127807,-0.014950,0.875698,-2.749546,-1.380153,0.228394
7388,-0.137569,-0.012510,0.881067,-2.780083,-0.983177,0.304735
7394,-0.128539,-0.010069,0.871061,-2.749546,-1.120592,0.457418
7399,-0.131712,-0.016659,0.876674,-2.581595,-1.196933,0.213125
7405,-0.130247,-0.012754,0.872037,-2.688474,-1.196933,0.442150
7410,-0.127075,-0.015194,0.870329,-2.749546,-1.028982,0.472686
7416,-0.129515,-0.013242,0.882287,-2.825888,-1.212201,0.503223
7422,-0.133908,-0.014706,0.876674,-2.688474,-1.105323,0.213125
7427,-0.130003,-0.010069,0.868376,-2.734278,-1.181665,0.381077
7433,-0.129027,-0.009093,0.864715,-2.764815,-1.059519,0.579565
7438,-0.128783,-0.010557,0.868376,-2.703742,-1.319080,0.274199
7444,-0.137813,-0.012021,0.867644,-2.825888,-1.212201,0.335272
7449,-0.130735,-0.014950,0.885460,-2.703742,-1.151128,0.518491
7455,-0.134396,-0.009337,0.877894,-2.688474,-1.181665,0.396345
7460,-0.127319,-0.016659,0.864959,-2.627400,-1.120592,0.442150
7466,-0.130491,-0.003479,0.870573,-2.673205,-1.059519,0.549028
7471,-0.131712,-0.010069,0.872525,-2.902230,-1.090055,0.381077
7477,-0.128783,-0.009337,0.877162,-2.841157,-1.105323,0.411613
7483,-0.133420,-0.011289,0.875942,-2.627400,-1.181665,0.320003
7488,-0.126830,-0.017391,0.871061,-2.734278,-1.227470,0.411613
7494,-0.126342,-0.014462,0.873989,-2.673205,-1.120592,0.503223
7499,-0.131223,-0.011289,0.873745,-2.612132,-1.196933,0.533760
7505,-0.130979,-0.012510,0.870817,-2.749546,-0.967909,0.274199
7510,-0.131712,-0.012998,0.872281,-2.856425,-1.028982,0.365808
7516,-0.133420,-0.015926,0.875942,-2.780083,-1.166397,0.365808
7521,-0.128539,-0.010557,0.863739,-2.642668,-0.906835,0.381077
7527,-0.134152,-0.021052,0.874478,-2.764815,-0.952640,0.503223
7533,-0.132444,-0.012998,0.870329,-2.780083,-0.952640,0.426881
7538,-0.134884,-0.014218,0.873745,-2.810620,-1.273275,0.335272
7544,-0.132688,-0.012998,0.875210,-2.825888,-1.090055,0.426881
7549,-0.123902,-0.012265,0.884484,-2.841157,-1.090055,0.304735
7555,-0.129027,-0.012510,0.862519,-2.825888,-1.242738,0.411613
7560,-0.135128,-0.015194,0.878138,-2.871693,-1.059519,0.426881
7566,-0.130735,-0.012510,0.871305,-2.657937,-1.227470,0.487955
7571,-0.132200,-0.011777,0.867888,-2.719010,-1.105323,0.350540
7577,-0.128539,-0.012998,0.872769,-2.841157,-1.120592,0.289467
7583,-0.138789,-0.013242,0.872525,-2.749546,-1.227470,0.289467
7588,-0.132932,-0.013730,0.866668,-2.719010,-1.074787,0.320003
7594,-0.134640,-0.013242,0.868620,-2.719010,-1.120592,0.487955
7599,-0.132932,-0.009337,0.866668,-2.703742,-1.212201,0.457418
7605,-0.128295,-0.008605,0.872769,-2.703742,-1.227470,0.381077
7610,-0.135617,-0.010313,0.865936,-2.657937,-1.227470,0.320003
7616,-0.132200,-0.016170,0.872769,-2.780083,-1.181665,0.258930
7621,-0.126586,-0.002259,0.873013,-2.825888,-1.074787,0.335272
7627,-0.130735,-0.004944,0.872037,-2.734278,-1.349616,0.549028
7632,-0.128783,-0.016170,0.866668,-2.780083,-1.028982,0.426881
7638,-0.127807,-0.012021,0.868620,-2.764815,-1.105323,0.320003
7644,-0.129759,-0.014462,0.877162,-2.642668,-1.212201,0.396345
7649,-0.130247,-0.010069,0.869108,-2.795351,-1.028982,0.411613
7655,-0.129271,-0.014218,0.875210,-2.703742,-1.166397,0.320003
7660,-0.131223,-0.010801,0.878383,-2.780083,-1.059519,0.442150
7666,-0.141230,-0.012510,0.875942,-2.734278,-1.105323,0.472686
7671,-0.126586,-0.012265,0.877406,-2.734278,-1.227470,0.335272
7677,-0.130735,-0.015438,0.869596,-2.734278,-1.135860,0.350540
7682,-0.134884,-0.012265,0.871061,-2.795351,-1.166397,0.518491
7688,-0.130979,-0.010069,0.866180,-2.719010,-1.135860,0.426881
7694,-0.127563,-0.008117,0.870085,-2.719010,-1.135860,0.274199
7699,-0.132932,-0.012510,0.879115,-2.825888,-1.242738,0.426881
7705,-0.129759,-0.008849,0.869840,-2.657937,-1.227470,0.426881
7710,-0.135617,-0.011289,0.882043,-2.825888,-1.105323,0.320003
7716,-0.133176,-0.011777,0.866180,-2.734278,-1.334348,0.396345
7721,-0.125610,-0.013730,0.875942,-2.627400,-1.242738,0.258930
7727,-0.133176,-0.013730,0.874478,-2.703742,-1.258006,0.320003
7732,-0.132688,-0.011289,0.872525,-2.764815,-1.074787,0.350540
7738,-0.134640,-0.011777,0.873745,-2.764815,-1.090055,0.335272
7744,-0.128539,-0.010801,0.870817,-2.764815,-0.937372,0.350540
7749,-0.128539,-0.013486,0.869840,-2.642668,-1.258006,0.365808
7755,-0.132444,-0.008849,0.875210,-2.810620,-1.212201,0.274199
7760,-0.135372,-0.012510,0.869108,-2.749546,-1.044250,0.396345
7766,-0.139521,-0.016414,0.874233,-2.657937,-0.983177,0.549028
7771,-0.134152,-0.015926,0.873989,-2.642668,-1.120592,0.258930
7777,-0.130735,-0.013730,0.864959,-2.734278,-1.151128,0.243662
7782,-0.128051,-0.013486,0.864227,-2.795351,-1.013714,0.472686
7788,-0.130247,-0.015682,0.866180,-2.596863,-1.105323,0.426881
7793,-0.130247,-0.016414,0.868864,-2.825888,-1.028982,0.350540
7799,-0.135128,-0.010313,0.882287,-2.749546,-1.059519,0.350540
7805,-0.130003,-0.012998,0.875698,-2.673205,-1.090055,0.304735
7810,-0.134396,-0.011777,0.864471,-2.642668,-1.105323,0.411613
7816,-0.126098,-0.012754,0.868864,-2.673205,-0.998445,0.243662
7821,-0.133664,-0.015438,0.874966,-2.703742,-1.059519,0.396345
7827,-0.132932,-0.012754,0.874966,-2.688474,-1.258006,0.457418
7832,-0.132444,-0.011533,0.869596,-2.734278,-1.166397,0.594833
7838,-0.130003,-0.008361,0.864471,-2.688474,-1.074787,0.274199
7843,-0.134396,-0.013242,0.868864,-2.734278,-1.120592,0.228394
7849,-0.134884,-0.013730,0.875942,-2.627400,-1.212201,0.487955
7855,-0.134396,-0.012510,0.882287,-2.749546,-1.028982,0.350540
7860,-0.133176,-0.010801,0.869840,-2.719010,-0.983177,0.442150
7866,-0.137813,-0.013242,0.868376,-2.780083,-1.074787,0.335272
7871,-0.130491,-0.013974,0.872037,-2.703742,-1.196933,0.365808
7877,-0.132200,-0.014462,0.875454,-2.780083,-1.059519,0.365808
7882,-0.134152,-0.012998,0.871061,-2.703742,-1.212201,0.350540
7888,-0.135861,-0.015682,0.875210,-2.825888,-1.044250,0.274199
7893,-0.129027,-0.014950,0.865203,-2.749546,-1.044250,0.350540
7899,-0.135128,-0.009337,0.870573,-2.902230,-1.120592,0.258930
7905,-0.134396,-0.016414,0.869840,-2.810620,-1.181665,0.350540
7910,-0.126586,-0.013974,0.880823,-2.749546,-1.273275,0.518491
7916,-0.131223,-0.014218,0.862031,-2.703742,-1.120592,0.258930
7921,-0.128051,-0.016414,0.880579,-2.657937,-1.151128,0.472686
7927,-0.134884,-0.010313,0.872281,-2.734278,-1.135860,0.518491
7932,-0.135617,-0.012265,0.874722,-2.719010,-1.227470,0.350540
7938,-0.132444,-0.017147,0.866912,-2.841157,-1.196933,0.335272
7943,-0.133176,-0.008361,0.871793,-2.856425,-1.044250,0.381077
7949,-0.128051,-0.009093,0.865936,-2.780083,-1.074787,0.350540
7955,-0.132444,-0.010801,0.875454,-2.734278,-0.983177,0.350540
7960,-0.130003,-0.013974,0.875698,-2.581595,-0.922104,0.487955
7966,-0.128783,-0.010313,0.873745,-2.825888,-1.105323,0.472686
7971,-0.135617,-0.017147,0.878871,-2.581595,-1.044250,0.411613
7977,-0.130979,-0.010313,0.867644,-2.749546,-1.059519,0.426881
7982,-0.127563,-0.013730,0.876430,-2.734278,-1.196933,0.503223
7988,-0.132932,-0.015926,0.872525,-2.688474,-1.212201,0.411613
7993,-0.127319,-0.013730,0.883020,-2.642668,-1.273275,0.304735
7999,-0.132932,-0.012021,0.863739,-2.673205,-1.212201,0.426881
8004,-0.126342,-0.010557,0.875942,-2.703742,-1.181665,0.335272
8010,-0.131956,-0.008117,0.868620,-2.734278,-1.212201,0.396345
8016,-0.127807,-0.009581,0.869840,-2.688474,-0.983177,0.472686
8021,-0.127563,-0.012510,0.879603,-2.673205,-1.212201,0.411613
8027,-0.133908,-0.015926,0.869108,-2.719010,-1.028982,0.350540
8032,-0.135372,-0.013486,0.872525,-2.871693,-1.105323,0.411613
8038,-0.132932,-0.014706,0.872037,-2.703742,-1.242738,0.381077
8043,-0.129515,-0.012998,0.869596,-2.703742,-1.013714,0.335272
8049,-0.132688,-0.010313,0.874966,-2.596863,-1.105323,0.365808
8054,-0.129027,-0.013486,0.868864,-2.917498,-1.013714,0.304735
8060,-0.127075,-0.013486,0.870573,-2.810620,-0.983177,0.304735
8066,-0.134396,-0.011289,0.867400,-2.764815,-1.090055,0.365808
8071,-0.127319,-0.015682,0.870817,-2.795351,-0.998445,0.289467
8077,-0.131223,-0.014950,0.872037,-2.719010,-1.135860,0.350540
8082,-0.129271,-0.014218,0.881799,-2.551059,-1.212201,0.274199
8088,-0.130247,-0.008849,0.873257,-2.841157,-1.288543,0.365808
8093,-0.136593,-0.017879,0.878871,-2.795351,-1.120592,0.274199
8099,-0.136837,-0.009825,0.875210,-2.764815,-0.998445,0.335272
8104,-0.129271,-0.020807,0.874966,-2.780083,-1.074787,0.396345
8110,-0.132444,-0.015682,0.879847,-2.764815,-1.151128,0.411613
8116,-0.130003,-0.014462,0.872281,-2.856425,-1.135860,0.411613
8121,-0.134884,-0.012998,0.873501,-2.825888,-1.166397,0.289467
8127,-0.131468,-0.012998,0.874722,-2.688474,-0.937372,0.274199
8132,-0.131223,-0.013486,0.877406,-2.673205,-1.135860,0.457418
8138,-0.132444,-0.014950,0.873013,-2.734278,-1.242738,0.258930
8143,-0.129515,-0.014218,0.870085,-2.810620,-1.166397,0.396345
8149,-0.131468,-0.014950,0.875454,-2.734278,-1.151128,0.396345
8154,-0.131223,-0.010069,0.880335,-2.825888,-1.181665,0.350540
8160,-0.134396,-0.009337,0.875942,-2.581595,-1.044250,0.274199
8165,-0.132688,-0.014706,0.867400,-2.688474,-1.273275,0.243662
8171,-0.138301,-0.013486,0.870817,-2.688474,-1.212201,0.549028
8177,-0.131956,-0.012265,0.882287,-2.780083,-1.074787,0.396345
8182,-0.135128,-0.009093,0.869840,-2.627400,-1.105323,0.487955
8188,-0.128295,-0.010801,0.876918,-2.612132,-1.166397,0.518491
8193,-0.135372,-0.014706,0.866180,-2.841157,-1.105323,0.243662
8199,-0.131712,-0.009581,0.868620,-2.871693,-1.273275,0.320003
8204,-0.134152,-0.009337,0.867644,-2.703742,-1.181665,0.228394
8210,-0.131468,-0.014218,0.869352,-2.612132,-1.028982,0.350540
8215,-0.127807,-0.018367,0.862519,-2.719010,-1.059519,0.243662
8221,-0.128783,-0.014462,0.874966,-2.749546,-1.059519,0.320003
8227,-0.133176,-0.016659,0.884728,-2.734278,-1.212201,0.549028
8232,-0.130491,-0.011777,0.865692,-2.871693,-1.059519,0.426881
8238,-0.130247,-0.015438,0.872281,-2.902230,-1.196933,0.335272
8243,-0.129515,-0.022028,0.872769,-2.825888,-1.425958,0.396345
8249,-0.133908,-0.011289,0.871061,-2.673205,-1.196933,0.258930
8254,-0.130491,-0.009093,0.874478,-2.673205,-1.258006,0.289467
8260,-0.131712,-0.009581,0.865936,-2.688474,-1.166397,0.365808
8265,-0.128295,-0.014218,0.869352,-2.764815,-0.967909,0.549028
8271,-0.133420,-0.016414,0.862031,-2.749546,-1.135860,0.289467
8277,-0.128051,-0.009093,0.867400,-2.932766,-1.258006,0.304735
8282,-0.128539,-0.015926,0.880579,-2.825888,-0.998445,0.411613
8288,-0.127807,-0.011533,0.870573,-2.642668,-1.059519,0.503223
8293,-0.129515,-0.015194,0.859102,-2.703742,-1.044250,0.274199
8299,-0.128051,-0.018855,0.865692,-2.703742,-1.273275,0.442150
8304,-0.130003,-0.016170,0.875942,-2.703742,-0.922104,0.274199
8310,-0.132200,-0.008117,0.875942,-2.642668,-1.227470,0.335272
8315,-0.133420,-0.013974,0.871549,-2.810620,-1.151128,0.579565
8321,-0.127563,-0.012510,0.881799,-2.688474,-1.013714,0.549028
8326,-0.126830,-0.008849,0.875698,-2.749546,-1.059519,0.411613
8332,-0.127807,-0.013486,0.869352,-2.780083,-1.028982,0.228394
8338,-0.129027,-0.017147,0.870085,-2.703742,-1.105323,0.381077
8343,-0.128783,-0.018855,0.876430,-2.825888,-0.906835,0.411613
8349,-0.131223,-0.012510,0.867156,-2.673205,-1.028982,0.381077
8354,-0.130979,-0.007628,0.873013,-2.673205,-0.983177,0.381077
8360,-0.132200,-0.012998,0.876918,-2.673205,-1.028982,0.533760
8365,-0.132200,-0.008849,0.865447,-2.719010,-1.090055,0.487955
8371,-0.130247,-0.011045,0.872525,-2.764815,-1.166397,0.472686
8376,-0.131956,-0.018123,0.877894,-2.688474,-1.166397,0.289467
8382,-0.132200,-0.016414,0.873257,-2.719010,-1.013714,0.426881
8388,-0.133908,-0.013974,0.868864,-2.810620,-1.090055,0.289467
8393,-0.131712,-0.017391,0.877894,-2.825888,-1.074787,0.320003
8399,-0.135128,-0.017635,0.876674,-2.581595,-1.044250,0.274199
8404,-0.131712,-0.010069,0.875454,-2.734278,-1.120592,0.411613
8410,-0.134152,-0.006652,0.873013,-2.627400,-1.074787,0.350540
8415,-0.126586,-0.012998,0.869596,-2.627400,-1.242738,0.274199
8421,-0.128051,-0.014462,0.875210,-2.688474,-0.983177,0.381077
8426,-0.132688,-0.012998,0.865447,-2.871693,-0.922104,0.335272
8432,-0.134884,-0.015194,0.879603,-2.627400,-1.120592,0.457418
8438,-0.133420,-0.014950,0.874233,-2.749546,-1.135860,0.365808
8443,-0.132932,-0.010801,0.873989,-2.825888,-1.090055,0.533760
8449,-0.129759,-0.012998,0.867400,-2.703742,-1.151128,0.426881
8454,-0.128539,-0.013730,0.867400,-2.703742,-1.181665,0.243662
8460,-0.132444,-0.014462,0.871305,-2.627400,-1.120592,0.411613
8465,-0.128051,-0.010801,0.868620,-2.749546,-0.952640,0.533760
8471,-0.130735,-0.010069,0.866424,-2.764815,-1.059519,0.304735
8476,-0.128051,-0.009825,0.877406,-2.627400,-1.105323,0.335272
8482,-0.131712,-0.012021,0.875942,-2.917498,-1.044250,0.320003
8487,-0.131468,-0.010801,0.871793,-2.627400,-1.028982,0.411613
8493,-0.130003,-0.012998,0.873257,-2.749546,-1.227470,0.411613
8499,-0.132932,-0.014218,0.871061,-2.719010,-1.044250,0.533760
8504,-0.137325,-0.012754,0.871061,-2.734278,-1.105323,0.335272
8510,-0.129515,-0.014462,0.873989,-2.703742,-1.044250,0.167320
8515,-0.132932,-0.016414,0.873989,-2.734278,-1.135860,0.579565
8521,-0.130491,-0.012510,0.875942,-2.764815,-1.258006,0.426881
8526,-0.128783,-0.013974,0.868132,-2.627400,-0.906835,0.564296
8532,-0.127563,-0.014218,0.872769,-2.612132,-1.227470,0.396345
8537,-0.132200,-0.013486,0.881067,-2.657937,-1.028982,0.442150
8543,-0.132688,-0.018367,0.877894,-2.642668,-1.044250,0.426881
8549,-0.129759,-0.014218,0.874722,-2.764815,-1.181665,0.304735
8554,-0.132200,-0.017147,0.865447,-2.642668,-1.044250,0.411613
8560,-0.134884,-0.014950,0.872769,-2.810620,-1.135860,0.320003
8565,-0.134640,-0.011533,0.866180,-2.764815,-1.105323,0.243662
8571,-0.129759,-0.014706,0.875454,-2.657937,-0.983177,0.350540
8576,-0.127807,-0.014462,0.872769,-2.749546,-0.906835,0.350540
8582,-0.127807,-0.014218,0.875210,-2.734278,-0.983177,0.518491
8587,-0.131712,-0.015438,0.877894,-2.688474,-0.998445,0.396345
8593,-0.133420,-0.015194,0.874966,-2.673205,-1.074787,0.533760
8599,-0.135128,-0.019831,0.873257,-2.825888,-0.967909,0.274199
8604,-0.131712,-0.011045,0.868132,-2.841157,-1.212201,0.304735
8610,-0.130003,-0.015682,0.868132,-2.657937,-1.166397,0.411613
8615,-0.126830,-0.013242,0.866912,-2.932766,-1.105323,0.381077
8621,-0.129759,-0.019343,0.871061,-2.764815,-1.105323,0.503223
8626,-0.132688,-0.011045,0.867644,-2.703742,-1.074787,0.457418
8632,-0.137081,-0.015682,0.866424,-2.627400,-0.983177,0.350540
8637,-0.129027,-0.005676,0.869596,-2.734278,-1.044250,0.365808
8643,-0.127807,-0.016170,0.871793,-2.764815,-0.952640,0.350540
8649,-0.130247,-0.015438,0.867644,-2.673205,-1.090055,0.426881
8654,-0.134152,-0.014706,0.867888,-2.596863,-1.212201,0.442150
8660,-0.131468,-0.012021,0.874233,-2.703742,-0.998445,0.396345
8665,-0.130003,-0.017635,0.868132,-2.734278,-1.135860,0.304735
8671,-0.124878,-0.014706,0.877162,-2.581595,-1.028982,0.396345
8676,-0.134152,-0.013730,0.880335,-2.673205,-1.242738,0.396345
8682,-0.127075,-0.008605,0.865203,-2.734278,-1.166397,0.533760
8687,-0.136593,-0.011289,0.873501,-2.642668,-0.983177,0.594833
8693,-0.133420,-0.016414,0.869596,-2.810620,-1.212201,0.518491
8698,-0.130247,-0.006652,0.864715,-2.795351,-1.028982,0.350540
8704,-0.132200,-0.011777,0.868132,-2.688474,-1.028982,0.442150
8710,-0.127563,-0.013486,0.865936,-2.657937,-1.013714,0.335272
8715,-0.130735,-0.009093,0.875698,-2.688474,-1.212201,0.503223
8721,-0.131712,-0.012998,0.874966,-2.780083,-1.212201,0.518491
8726,-0.136349,-0.013486,0.873501,-2.825888,-1.090055,0.381077
8732,-0.130003,-0.009825,0.867400,-2.780083,-1.273275,0.426881
8737,-0.133176,-0.015682,0.868620,-2.734278,-1.059519,0.350540
8743,-0.130003,-0.014950,0.869840,-2.673205,-1.181665,0.258930
8748,-0.128539,-0.006164,0.879603,-2.688474,-1.090055,0.365808
8754,-0.129515,-0.010557,0.875454,-2.856425,-1.181665,0.503223
8760,-0.134396,-0.017147,0.869352,-2.734278,-1.120592,0.411613
8765,-0.136593,-0.012754,0.864715,-2.719010,-1.212201,0.365808
8771,-0.128783,-0.006408,0.867644,-2.841157,-1.090055,0.426881
8776,-0.129271,-0.011289,0.875698,-2.734278,-0.998445,0.365808
8782,-0.129271,-0.011289,0.861054,-2.703742,-1.135860,0.381077
8787,-0.132444,-0.015926,0.873989,-2.764815,-1.135860,0.243662
8793,-0.134884,-0.011777,0.868132,-2.627400,-1.028982,0.304735
8798,-0.132200,-0.008605,0.876918,-2.657937,-1.334348,0.197857
8804,-0.132200,-0.012754,0.878383,-2.825888,-1.013714,0.396345
8810,-0.126098,-0.012510,0.877894,-2.703742,-0.983177,0.503223
8815,-0.125854,-0.010069,0.877894,-2.627400,-1.028982,0.442150
8821,-0.134152,-0.010557,0.876918,-2.627400,-0.937372,0.365808
8826,-0.134640,-0.013242,0.871061,-2.780083,-1.120592,0.442150
8832,-0.131956,-0.009825,0.875454,-2.673205,-0.830494,0.457418
8837,-0.133176,-0.013486,0.869840,-2.627400,-1.120592,0.457418
8843,-0.132444,-0.012265,0.875454,-2.780083,-1.181665,0.411613
8848,-0.129271,-0.015438,0.867156,-2.795351,-1.074787,0.350540
8854,-0.134152,-0.013242,0.872281,-2.795351,-1.044250,0.487955
8860,-0.134152,-0.007384,0.875698,-2.688474,-1.090055,0.503223
8865,-0.127319,-0.014218,0.867156,-2.612132,-1.181665,0.258930
8871,-0.132444,-0.015438,0.869108,-2.596863,-1.120592,0.304735
8876,-0.132688,-0.010801,0.874966,-2.734278,-1.059519,0.289467
8882,-0.131712,-0.009337,0.866180,-2.810620,-1.013714,0.365808
8887,-0.132200,-0.012998,0.883264,-2.749546,-1.090055,0.381077
8893,-0.131468,-0.013730,0.877650,-2.719010,-1.120592,0.274199
8898,-0.127319,-0.012998,0.871549,-2.627400,-1.059519,0.381077
8904,-0.127563,-0.012510,0.872769,-2.749546,-1.090055,0.472686
8909,-0.134884,-0.015194,0.875698,-2.780083,-1.227470,0.289467
8915,-0.134884,-0.016414,0.872525,-2.703742,-1.074787,0.350540
8921,-0.132932,-0.012265,0.871061,-2.719010,-1.105323,0.457418
8926,-0.135617,-0.012754,0.876430,-2.810620,-1.151128,0.457418
8932,-0.132932,-0.010069,0.879115,-2.780083,-1.196933,0.411613
8937,-0.130979,-0.019831,0.874478,-2.795351,-1.288543,0.335272
8943,-0.128539,-0.013730,0.870085,-2.703742,-1.258006,0.396345
8948,-0.132444,-0.014706,0.873013,-2.780083,-1.135860,0.503223
8954,-0.131223,-0.013242,0.866424,-2.856425,-0.906835,0.426881
8959,-0.131712,-0.009581,0.869596,-2.780083,-1.074787,0.197857
8965,-0.126830,-0.007140,0.870329,-2.673205,-1.212201,0.396345
8971,-0.132932,-0.012754,0.864471,-2.825888,-1.303811,0.472686
8976,-0.134884,-0.010069,0.875942,-2.764815,-1.120592,0.335272
8982,-0.129271,-0.012510,0.874478,-2.734278,-1.227470,0.442150
8987,-0.135128,-0.010801,0.877650,-2.688474,-1.227470,0.335272
8993,-0.132444,-0.010313,0.865936,-2.734278,-1.105323,0.426881
8998,-0.141474,-0.010313,0.869352,-2.596863,-1.013714,0.503223
9004,-0.132444,-0.017391,0.865692,-2.764815,-1.303811,0.304735
9009,-0.134396,-0.008605,0.865936,-2.703742,-1.105323,0.365808
9015,-0.131468,-0.010313,0.866668,-2.902230,-1.151128,0.396345
9020,-0.132200,-0.009581,0.869108,-2.795351,-1.090055,0.457418
9026,-0.131468,-0.011777,0.873257,-2.780083,-1.028982,0.243662
9032,-0.136837,-0.008361,0.866668,-2.825888,-1.151128,0.442150
9037,-0.130979,-0.012998,0.870329,-2.719010,-1.135860,0.243662
9043,-0.133420,-0.010801,0.868864,-2.825888,-1.227470,0.472686
9048,-0.130491,-0.013730,0.868620,-2.764815,-1.028982,0.396345
9054,-0.128783,-0.013730,0.873501,-2.749546,-1.151128,0.487955
9059,-0.133908,-0.016659,0.874966,-2.780083,-1.181665,0.518491
9065,-0.133908,-0.014950,0.869108,-2.596863,-1.166397,0.487955
9071,-0.134152,-0.010557,0.876186,-2.749546,-1.288543,0.350540
9076,-0.127563,-0.013974,0.873501,-2.871693,-1.196933,0.442150
9082,-0.133420,-0.014950,0.876430,-2.719010,-1.196933,0.549028
9087,-0.132932,-0.008361,0.872281,-2.703742,-1.120592,0.442150
9093,-0.138057,-0.012510,0.871549,-2.780083,-1.319080,0.411613
9098,-0.124878,-0.013730,0.871793,-2.688474,-1.196933,0.472686
9104,-0.136593,-0.006652,0.869840,-2.764815,-1.120592,0.335272
9109,-0.131712,-0.015682,0.866424,-2.795351,-1.273275,0.350540
9115,-0.129027,-0.014218,0.864959,-2.764815,-1.135860,0.518491
9120,-0.129271,-0.006896,0.867156,-2.749546,-1.013714,0.457418
9126,-0.122926,-0.011777,0.878627,-2.657937,-1.227470,0.365808
9132,-0.133420,-0.016659,0.875698,-2.642668,-1.059519,0.411613
9137,-0.128295,-0.014218,0.877162,-2.642668,-0.983177,0.335272
9143,-0.132444,-0.010069,0.860078,-2.841157,-1.059519,0.350540
9148,-0.128783,-0.011533,0.865936,-2.688474,-1.059519,0.457418
9154,-0.134640,-0.013974,0.869596,-2.627400,-0.998445,0.396345
9159,-0.133664,-0.011045,0.866424,-2.688474,-1.044250,0.396345
9165,-0.130979,-0.014706,0.871793,-2.749546,-1.074787,0.533760
9170,-0.138301,-0.012265,0.873745,-2.642668,-1.364884,0.350540
9176,-0.131468,-0.018611,0.877162,-2.627400,-1.227470,0.381077
9181,-0.132444,-0.007140,0.871305,-2.795351,-1.074787,0.411613
9187,-0.127075,-0.011777,0.870573,-2.764815,-1.013714,0.411613
9193,-0.129759,-0.012510,0.882776,-2.780083,-1.227470,0.503223
9198,-0.125366,-0.011289,0.868132,-2.734278,-1.044250,0.396345
9204,-0.136105,-0.013730,0.871061,-2.581595,-1.028982,0.396345
9209,-0.131956,-0.012021,0.873989,-2.856425,-1.151128,0.503223
9215,-0.131468,-0.012754,0.864959,-2.642668,-1.212201,0.289467
9220,-0.135128,-0.014218,0.869352,-2.917498,-1.105323,0.350540
9226,-0.128539,-0.010801,0.876430,-2.764815,-1.166397,0.335272
9231,-0.132932,-0.012998,0.876186,-2.825888,-1.090055,0.320003
9237,-0.129271,-0.013242,0.870085,-2.642668,-1.303811,0.503223
9243,-0.130735,-0.012754,0.866912,-2.764815,-1.242738,0.396345
9248,-0.135861,-0.014218,0.873013,-2.749546,-1.105323,0.243662
9254,-0.130979,-0.010801,0.874966,-2.749546,-1.135860,0.411613
9259,-0.133420,-0.013242,0.873257,-2.749546,-1.013714,0.365808
9265,-0.129759,-0.009581,0.868132,-2.841157,-1.059519,0.487955
9270,-0.131712,-0.006896,0.874478,-2.810620,-0.983177,0.579565
9276,-0.131712,-0.009581,0.872525,-2.917498,-1.028982,0.243662
9281,-0.135617,-0.012998,0.874722,-2.703742,-1.288543,0.320003
9287,-0.133176,-0.011533,0.872037,-2.734278,-1.028982,0.365808
9293,-0.126342,-0.016903,0.874478,-2.795351,-0.998445,0.411613
9298,-0.130003,-0.013730,0.872525,-2.642668,-1.151128,0.457418
9304,-0.131956,-0.008849,0.873989,-2.749546,-1.135860,0.457418
9309,-0.128783,-0.010069,0.870817,-2.627400,-1.181665,0.320003
9315,-0.132444,-0.010801,0.868376,-2.627400,-1.288543,0.304735
9320,-0.137325,-0.015926,0.878383,-2.719010,-1.059519,0.381077
9326,-0.133420,-0.009093,0.874478,-2.581595,-1.166397,0.472686
9331,-0.129759,-0.012998,0.872769,-2.825888,-1.120592,0.396345
9337,-0.129515,-0.013486,0.868132,-2.734278,-1.105323,0.365808
9343,-0.135617,-0.017879,0.872525,-2.749546,-1.288543,0.350540
9348,-0.128295,-0.008605,0.866668,-2.642668,-1.303811,0.258930
9354,-0.133420,-0.012998,0.875942,-2.703742,-1.212201,0.350540
9359,-0.136105,-0.014706,0.870329,-2.688474,-1.105323,0.274199
9365,-0.124878,-0.015682,0.866180,-2.780083,-1.166397,0.396345
9370,-0.137325,-0.012021,0.874966,-2.673205,-1.090055,0.304735
9376,-0.138301,-0.020807,0.859346,-2.810620,-0.967909,0.320003
9381,-0.134396,-0.009581,0.874966,-2.719010,-1.044250,0.274199
9387,-0.135861,-0.011289,0.867888,-2.780083,-1.028982,0.335272
9392,-0.136593,-0.012265,0.866912,-2.764815,-1.013714,0.442150
9398,-0.134152,-0.009581,0.874478,-2.734278,-1.242738,0.381077
9404,-0.126098,-0.015682,0.871549,-2.780083,-1.090055,0.289467
9409,-0.131956,-0.013730,0.871549,-2.780083,-1.090055,0.274199
9415,-0.133420,-0.018367,0.879115,-2.703742,-1.090055,0.243662
9420,-0.139033,-0.012510,0.871061,-2.703742,-1.120592,0.381077
9426,-0.132200,-0.014706,0.871305,-2.627400,-1.044250,0.487955
9431,-0.132200,-0.014706,0.869108,-2.749546,-1.135860,0.335272
9437,-0.130247,-0.015682,0.874478,-2.719010,-1.090055,0.335272
9442,-0.131223,-0.013242,0.871549,-2.749546,-1.059519,0.396345
9448,-0.133420,-0.008605,0.875698,-2.734278,-1.090055,0.426881
9454,-0.134396,-0.012754,0.875210,-2.749546,-1.120592,0.381077
9459,-0.129027,-0.013974,0.868864,-2.795351,-1.013714,0.365808
9465,-0.130979,-0.015194,0.866912,-2.673205,-1.059519,0.457418
9470,-0.128539,-0.012021,0.877406,-2.627400,-1.059519,0.304735
9476,-0.132932,-0.018123,0.865936,-2.871693,-1.090055,0.304735
9481,-0.130735,-0.008361,0.869840,-2.657937,-1.212201,0.396345
9487,-0.131223,-0.009337,0.866912,-2.871693,-1.166397,0.365808
9492,-0.126342,-0.015438,0.876918,-2.703742,-1.059519,0.365808
9498,-0.125610,-0.015682,0.864471,-2.734278,-1.028982,0.335272
9504,-0.128539,-0.007872,0.868620,-2.673205,-1.303811,0.472686
9509,-0.130735,-0.017147,0.864227,-2.657937,-1.044250,0.350540
9515,-0.125366,-0.022516,0.870573,-2.749546,-1.028982,0.197857
9520,-0.129515,-0.008117,0.871549,-2.627400,-0.983177,0.289467
9526,-0.134640,-0.009825,0.867644,-2.764815,-1.135860,0.304735
9531,-0.138789,-0.014462,0.879847,-2.764815,-1.273275,0.258930
9537,-0.132200,-0.012998,0.871061,-2.764815,-1.074787,0.533760
9542,-0.132444,-0.015926,0.868132,-2.688474,-1.212201,0.487955
9548,-0.131223,-0.012754,0.873013,-2.810620,-0.983177,0.457418
9553,-0.130735,-0.017147,0.875698,-2.856425,-1.181665,0.365808
9559,-0.127563,-0.011533,0.873501,-2.642668,-1.196933,0.549028
9565,-0.127807,-0.010801,0.875698,-2.886961,-1.013714,0.304735
9570,-0.130003,-0.008849,0.879847,-2.703742,-1.395421,0.503223
9576,-0.130979,-0.011289,0.875942,-2.841157,-1.090055,0.426881
9581,-0.136349,-0.009337,0.870573,-2.703742,-1.151128,0.396345
9587,-0.131468,-0.012265,0.876918,-2.657937,-1.135860,0.579565
9592,-0.131468,-0.011777,0.867888,-2.673205,-0.906835,0.335272
9598,-0.130247,-0.013730,0.870573,-2.795351,-0.983177,0.320003
9603,-0.135861,-0.011533,0.877406,-2.810620,-1.059519,0.304735
9609,-0.134396,-0.013242,0.865692,-2.734278,-1.273275,0.396345
9615,-0.129271,-0.016903,0.867888,-2.688474,-1.105323,0.533760
9620,-0.129759,-0.012265,0.870085,-2.642668,-1.028982,0.396345
9626,-0.132688,-0.009093,0.873989,-2.749546,-1.258006,0.396345
9631,-0.138057,-0.011045,0.871549,-2.734278,-1.120592,0.289467
9637,-0.130979,-0.012510,0.868376,-2.825888,-1.212201,0.426881
9642,-0.128539,-0.016414,0.874233,-2.673205,-1.013714,0.442150
9648,-0.130491,-0.012998,0.872281,-2.749546,-1.166397,0.274199
9653,-0.128295,-0.013974,0.864227,-2.581595,-1.013714,0.579565
9659,-0.130003,-0.010069,0.882776,-2.810620,-1.135860,0.335272
9665,-0.129515,-0.012510,0.869108,-2.734278,-0.952640,0.518491
9670,-0.132932,-0.013486,0.868132,-2.749546,-1.074787,0.396345
9676,-0.134884,-0.011777,0.871061,-2.688474,-1.151128,0.411613
9681,-0.136593,-0.017391,0.875698,-2.734278,-1.135860,0.350540
9687,-0.129759,-0.005676,0.871061,-2.657937,-0.967909,0.457418
9692,-0.131712,-0.017635,0.878627,-2.657937,-0.845762,0.274199
9698,-0.131712,-0.014706,0.875210,-2.673205,-1.028982,0.274199
9703,-0.131712,-0.014706,0.875698,-2.688474,-1.151128,0.289467
9709,-0.132200,-0.019343,0.883020,-2.749546,-1.059519,0.258930
9714,-0.131956,-0.013730,0.872769,-2.810620,-1.166397,0.320003
9720,-0.131712,-0.009581,0.867644,-2.734278,-1.090055,0.411613
9726,-0.136593,-0.013730,0.870329,-2.642668,-1.181665,0.258930
9731,-0.131712,-0.010557,0.876918,-2.642668,-1.227470,0.274199
9737,-0.133176,-0.012510,0.868620,-2.764815,-1.212201,0.381077
9742,-0.130735,-0.012510,0.875698,-2.657937,-1.120592,0.258930
9748,-0.137325,-0.013242,0.868620,-2.780083,-1.196933,0.365808
9753,-0.131712,-0.014950,0.868864,-2.734278,-0.967909,0.335272
9759,-0.129271,-0.015194,0.868864,-2.719010,-1.212201,0.320003
9764,-0.132932,-0.013974,0.876430,-2.688474,-1.258006,0.365808
9770,-0.135617,-0.017147,0.875942,-2.657937,-1.258006,0.350540
9776,-0.124146,-0.015438,0.874233,-2.719010,-1.151128,0.335272
9781,-0.133908,-0.012510,0.867644,-2.764815,-0.967909,0.396345
9787,-0.130979,-0.007140,0.871793,-2.886961,-1.196933,0.243662
9792,-0.135617,-0.014950,0.873013,-2.749546,-1.227470,0.304735
9798,-0.131956,-0.013730,0.863251,-2.749546,-1.196933,0.350540
9803,-0.136105,-0.011533,0.867400,-2.657937,-1.212201,0.243662
9809,-0.132932,-0.013242,0.870085,-2.612132,-1.028982,0.549028
9814,-0.132932,-0.015438,0.868132,-2.749546,-1.196933,0.487955
9820,-0.134640,-0.015194,0.863739,-2.780083,-1.028982,0.274199
9826,-0.133420,-0.008605,0.876430,-2.780083,-1.105323,0.503223
9831,-0.129027,-0.015682,0.867156,-2.764815,-1.105323,0.335272
9837,-0.131223,-0.014462,0.868864,-2.856425,-1.135860,0.350540
9842,-0.130491,-0.012998,0.869352,-2.703742,-1.181665,0.549028
9848,-0.132200,-0.015194,0.872769,-2.596863,-1.273275,0.350540
9853,-0.131223,-0.012998,0.882532,-2.749546,-1.135860,0.381077
9859,-0.133420,-0.010801,0.864715,-2.551059,-1.273275,0.350540
9864,-0.136593,-0.010069,0.875454,-2.551059,-1.135860,0.381077
9870,-0.128783,-0.014706,0.870085,-2.780083,-0.983177,0.274199
9876,-0.139033,-0.005676,0.862763,-2.764815,-1.166397,0.518491
9881,-0.123658,-0.016903,0.864471,-2.780083,-1.303811,0.396345
9887,-0.138057,-0.019343,0.875210,-2.657937,-1.074787,0.381077
9892,-0.136593,-0.014218,0.882287,-2.719010,-1.013714,0.274199
9898,-0.128051,-0.017879,0.868132,-2.688474,-1.151128,0.197857
9903,-0.135128,-0.012510,0.870085,-2.734278,-1.151128,0.533760
9909,-0.132200,-0.008361,0.882287,-2.688474,-1.196933,0.411613
9914,-0.128051,-0.019099,0.865447,-2.688474,-0.983177,0.487955
9920,-0.127319,-0.008849,0.873745,-2.566327,-1.212201,0.289467
9925,-0.136593,-0.012265,0.874478,-2.734278,-1.013714,0.350540
9931,-0.129271,-0.010801,0.875210,-2.795351,-1.166397,0.472686
9937,-0.129515,-0.010313,0.873257,-2.734278,-1.212201,0.258930
9942,-0.129515,-0.007628,0.878383,-2.703742,-1.059519,0.426881
9948,-0.132200,-0.015682,0.878627,-2.871693,-1.120592,0.503223
9953,-0.131712,-0.013242,0.876430,-2.749546,-1.196933,0.182589
9959,-0.128539,-0.016414,0.875942,-2.841157,-1.044250,0.335272
9964,-0.134640,-0.009093,0.874722,-2.810620,-1.120592,0.365808
9970,-0.131712,-0.007140,0.874233,-2.749546,-1.074787,0.350540
9975,-0.129027,-0.015682,0.876430,-2.612132,-1.013714,0.442150
9981,-0.130979,-0.011777,0.872037,-2.673205,-1.105323,0.381077
9987,-0.131468,-0.016903,0.875454,-2.688474,-1.120592,0.243662
9992,-0.133176,-0.010313,0.866668,-2.719010,-0.922104,0.381077
9998,-0.136105,-0.010557,0.876674,-2.657937,-1.059519,0.381077
10003,-0.130247,-0.009093,0.874966,-2.749546,-1.090055,0.320003
10009,-0.132932,-0.012754,0.874478,-2.688474,-1.181665,0.335272
10015,-0.136349,-0.012510,0.875454,-2.886961,-1.059519,0.228394
10020,-0.129027,-0.012265,0.864715,-2.566327,-1.074787,0.487955
10026,-0.129515,-0.007140,0.873257,-2.719010,-1.105323,0.472686
10031,-0.128539,-0.013730,0.873013,-2.764815,-1.028982,0.396345
10037,-0.125854,-0.013730,0.870329,-2.825888,-1.044250,0.335272
10043,-0.136105,-0.006896,0.871549,-2.780083,-1.013714,0.350540
10048,-0.129759,-0.010069,0.873989,-2.902230,-1.059519,0.381077
10054,-0.135372,-0.004944,0.874966,-2.642668,-1.181665,0.350540
10060,-0.126830,-0.007872,0.882776,-2.734278,-1.044250,0.396345
10065,-0.132200,-0.008605,0.874478,-2.871693,-0.937372,0.396345
10071,-0.137081,-0.014218,0.867888,-2.780083,-1.196933,0.457418
10076,-0.132932,-0.010069,0.880335,-2.963303,-1.120592,0.487955
10082,-0.127563,-0.015926,0.871793,-2.642668,-1.166397,0.213125
10088,-0.129759,-0.011533,0.872281,-2.780083,-1.227470,0.243662
10093,-0.135861,-0.016659,0.870329,-2.734278,-1.044250,0.442150
10099,-0.133664,-0.012510,0.872037,-2.780083,-0.967909,0.243662
10105,-0.135372,-0.007140,0.873257,-2.825888,-1.044250,0.472686
10110,-0.130979,-0.007140,0.868620,-2.795351,-1.135860,0.396345
10116,-0.132688,-0.011777,0.864227,-2.749546,-1.151128,0.258930
10122,-0.130491,-0.020075,0.872037,-2.795351,-1.166397,0.274199
10127,-0.134396,-0.011289,0.875942,-2.780083,-1.135860,0.411613
10133,-0.132444,-0.014950,0.879359,-2.673205,-1.258006,0.411613
10139,-0.126342,-0.018367,0.866912,-2.703742,-1.105323,0.457418
10144,-0.131223,-0.019099,0.872037,-2.719010,-1.181665,0.426881
10150,-0.133664,-0.009825,0.873257,-2.780083,-1.151128,0.182589
10155,-0.131712,-0.015926,0.873257,-2.642668,-1.105323,0.442150
10161,-0.125122,-0.007384,0.873013,-2.703742,-0.861031,0.167320
10167,-0.133420,-0.011289,0.866668,-2.688474,-1.044250,0.396345
10172,-0.132688,-0.010801,0.870329,-2.612132,-1.212201,0.625369
10178,-0.132688,-0.012021,0.872037,-2.703742,-1.028982,0.243662
10184,-0.130491,-0.012754,0.876430,-2.795351,-1.028982,0.518491
10189,-0.133908,-0.013486,0.874966,-2.764815,-1.013714,0.579565
10195,-0.127563,-0.016170,0.878138,-2.657937,-0.967909,0.472686
10201,-0.132444,-0.005920,0.873989,-2.596863,-1.273275,0.411613
10206,-0.132444,-0.017635,0.868132,-2.764815,-1.212201,0.487955
10212,-0.129027,-0.010069,0.880579,-2.734278,-0.983177,0.411613
10218,-0.134884,-0.015194,0.869596,-2.703742,-1.181665,0.258930
10223,-0.131468,-0.012021,0.874966,-2.795351,-1.151128,0.487955
10229,-0.132688,-0.015194,0.875942,-2.795351,-1.227470,0.503223
10234,-0.130979,-0.007872,0.863983,-2.810620,-1.212201,0.258930
10240,-0.131223,-0.016414,0.881799,-2.841157,-0.952640,0.228394
10246,-0.129027,-0.015194,0.873989,-2.719010,-1.151128,0.533760
10251,-0.132444,-0.014950,0.866668,-2.703742,-0.906835,0.457418
10257,-0.132688,-0.011289,0.870329,-2.719010,-0.983177,0.213125
10263,-0.130491,-0.013730,0.877894,-2.841157,-1.258006,0.487955
10268,-0.128539,-0.012998,0.870817,-2.703742,-0.922104,0.518491
10274,-0.133420,-0.015682,0.863739,-2.657937,-0.983177,0.396345
10279,-0.130003,-0.015438,0.871549,-2.627400,-1.028982,0.442150
10285,-0.132200,-0.010801,0.874478,-2.642668,-0.998445,0.426881
10291,-0.135128,-0.011289,0.879359,-2.734278,-1.303811,0.381077
10296,-0.131712,-0.013730,0.874966,-2.749546,-1.151128,0.487955
10302,-0.129027,-0.011533,0.866668,-2.810620,-1.349616,0.549028
10308,-0.131468,-0.011533,0.871305,-2.795351,-1.166397,0.258930
10313,-0.131712,-0.011777,0.871549,-2.764815,-1.166397,0.289467
10319,-0.129271,-0.006652,0.874966,-2.688474,-1.120592,0.426881
10325,-0.134152,-0.020563,0.873501,-2.734278,-0.983177,0.350540
10330,-0.130247,-0.013486,0.867644,-2.612132,-1.196933,0.442150
10336,-0.132200,-0.016903,0.869596,-2.810620,-1.151128,0.243662
10342,-0.136349,-0.012021,0.879359,-2.657937,-1.258006,0.304735
10347,-0.139277,-0.014950,0.874478,-2.703742,-1.044250,0.457418
10353,-0.131223,-0.010069,0.878138,-2.688474,-1.013714,0.304735
10358,-0.128051,-0.019099,0.877650,-2.902230,-1.242738,0.335272
10364,-0.128295,-0.009093,0.874966,-2.749546,-1.151128,0.411613
10370,-0.134152,-0.016659,0.865692,-2.856425,-1.013714,0.411613
10375,-0.131712,-0.010557,0.881555,-2.703742,-1.120592,0.381077
10381,-0.133176,-0.010557,0.863007,-2.963303,-1.181665,0.411613
10387,-0.131223,-0.012510,0.866180,-2.810620,-1.074787,0.258930
10392,-0.128295,-0.006652,0.874478,-2.810620,-1.135860,0.487955
10398,-0.132932,-0.013486,0.862763,-2.749546,-1.212201,0.304735
10404,-0.126830,-0.014706,0.867156,-2.810620,-1.212201,0.274199
10409,-0.129759,-0.014950,0.871793,-2.719010,-1.273275,0.350540
10415,-0.133664,-0.012998,0.868620,-2.627400,-0.998445,0.396345
10421,-0.132200,-0.012754,0.864959,-2.780083,-1.135860,0.442150
10426,-0.134396,-0.017147,0.869596,-2.795351,-1.074787,0.350540
10432,-0.130979,-0.008605,0.876186,-2.795351,-1.013714,0.457418
10437,-0.128295,-0.014950,0.875454,-2.795351,-1.044250,0.579565
10443,-0.137325,-0.013486,0.869596,-2.734278,-1.120592,0.350540
10449,-0.131468,-0.013974,0.875454,-2.719010,-0.906835,0.335272
10454,-0.134152,-0.014950,0.869596,-2.810620,-1.090055,0.274199
10460,-0.130735,-0.012265,0.874722,-2.749546,-1.059519,0.243662
10466,-0.135372,-0.006408,0.878871,-2.780083,-1.044250,0.304735
10471,-0.135128,-0.010313,0.862275,-2.703742,-1.105323,0.426881
10477,-0.136837,-0.009581,0.871305,-2.627400,-1.059519,0.320003
10482,-0.134152,-0.013730,0.874966,-2.810620,-1.303811,0.487955
10488,-0.130491,-0.010801,0.866912,-2.764815,-1.166397,0.350540
10494,-0.131468,-0.007872,0.871793,-2.734278,-1.013714,0.365808
10499,-0.130247,-0.012998,0.869596,-2.657937,-0.952640,0.472686
10505,-0.128783,-0.016170,0.871305,-2.856425,-1.212201,0.350540
10511,-0.136349,-0.011777,0.870817,-2.780083,-1.151128,0.503223
10516,-0.133664,-0.015438,0.882043,-2.688474,-1.135860,0.442150
10522,-0.132688,-0.010313,0.876674,-2.734278,-1.181665,0.457418
10528,-0.134396,-0.016659,0.869352,-2.612132,-1.258006,0.320003
10533,-0.135128,-0.010801,0.870329,-2.734278,-1.227470,0.274199
10539,-0.130735,-0.015926,0.877406,-2.673205,-1.135860,0.335272
10545,-0.136837,-0.015438,0.879847,-2.886961,-1.028982,0.518491
10550,-0.130003,-0.010069,0.873501,-2.627400,-0.891567,0.304735
10556,-0.133420,-0.008117,0.862763,-2.596863,-1.166397,0.411613
