timestamp,acc_x,acc_y,acc_z,gyro_x,gyro_y,gyro_z
2025-03-12 10:08:50.441889,-0.117,-0.042,0.699,-0.618,-0.587,5.943
2025-03-12 10:08:50.493956,-0.123,-0.040,0.699,-0.473,-0.633,5.776
2025-03-12 10:08:50.546013,-0.130,-0.032,0.701,-0.572,-0.481,5.707
2025-03-12 10:08:50.598180,-0.118,-0.042,0.687,-0.526,-0.420,5.806
2025-03-12 10:08:50.650984,-0.128,-0.038,0.703,-0.664,-0.420,5.859
2025-03-12 10:08:50.702331,-0.126,-0.040,0.702,-0.534,-0.687,5.608
2025-03-12 10:08:50.753707,-0.119,-0.027,0.704,-0.435,-0.458,5.852
2025-03-12 10:08:50.805890,-0.126,-0.039,0.701,-0.603,-0.557,5.966
2025-03-12 10:08:50.858683,-0.123,-0.039,0.700,-0.504,-0.404,6.027
2025-03-12 10:08:50.911112,-0.126,-0.044,0.706,-0.618,-0.504,5.737
2025-03-12 10:08:50.963012,-0.125,-0.039,0.698,-0.587,-0.504,5.776
2025-03-12 10:08:51.014876,-0.130,-0.039,0.697,-0.488,-0.511,5.852
2025-03-12 10:08:51.067360,-0.115,-0.035,0.703,-0.305,-0.649,5.699
2025-03-12 10:08:51.118910,-0.130,-0.034,0.699,-0.481,-0.633,5.638
2025-03-12 10:08:51.170916,-0.122,-0.028,0.698,-0.587,-0.412,5.852
2025-03-12 10:08:51.223234,-0.118,-0.034,0.701,-0.488,-0.458,5.814
2025-03-12 10:08:51.275845,-0.124,-0.038,0.695,-0.626,-0.519,5.798
2025-03-12 10:08:51.327989,-0.120,-0.031,0.703,-0.488,-0.587,5.653
2025-03-12 10:08:51.379918,-0.123,-0.035,0.694,-0.565,-0.374,5.882
2025-03-12 10:08:51.430889,-0.123,-0.034,0.698,-0.572,-0.618,5.859
2025-03-12 10:08:51.484162,-0.120,-0.039,0.704,-0.488,-0.381,5.646
2025-03-12 10:08:51.537135,-0.113,-0.040,0.697,-0.549,-0.610,5.776
2025-03-12 10:08:51.588557,-0.131,-0.041,0.710,-0.450,-0.526,5.692
2025-03-12 10:08:51.640297,-0.110,-0.032,0.708,-0.565,-0.526,5.722
2025-03-12 10:08:51.692682,-0.134,-0.031,0.700,-0.389,-0.595,5.707
2025-03-12 10:08:51.744309,-0.112,-0.035,0.702,-0.420,-0.603,5.692
2025-03-12 10:08:51.796369,-0.125,-0.031,0.700,-0.587,-0.732,5.715
2025-03-12 10:08:51.848834,-0.120,-0.036,0.697,-0.557,-0.618,5.753
2025-03-12 10:08:51.900449,-0.120,-0.033,0.697,-0.603,-0.481,5.745
2025-03-12 10:08:51.952100,-0.112,-0.032,0.711,-0.610,-0.496,5.890
2025-03-12 10:08:52.004998,-0.133,-0.036,0.695,-0.504,-0.679,5.753
2025-03-12 10:08:52.056881,-0.130,-0.041,0.701,-0.488,-0.587,5.852
2025-03-12 10:08:52.109118,-0.113,-0.030,0.702,-0.580,-0.336,5.615
2025-03-12 10:08:52.161197,-0.126,-0.038,0.700,-0.465,-0.633,5.707
2025-03-12 10:08:52.213780,-0.123,-0.031,0.702,-0.504,-0.511,5.859
2025-03-12 10:08:52.265914,-0.129,-0.037,0.699,-0.488,-0.595,5.837
2025-03-12 10:08:52.318238,-0.123,-0.041,0.704,-0.458,-0.572,5.661
2025-03-12 10:08:52.370999,-0.126,-0.033,0.700,-0.420,-0.511,5.623
2025-03-12 10:08:52.422968,-0.120,-0.040,0.705,-0.587,-0.649,5.837
2025-03-12 10:08:52.476353,-0.124,-0.037,0.696,-0.557,-0.511,5.814
2025-03-12 10:08:52.528322,-0.110,-0.034,0.701,-0.519,-0.519,5.776
2025-03-12 10:08:52.579902,-0.117,-0.029,0.707,-0.565,-0.565,5.745
2025-03-12 10:08:52.632158,-0.123,-0.039,0.693,-0.473,-0.519,5.959
2025-03-12 10:08:52.684948,-0.122,-0.028,0.700,-0.504,-0.412,5.692
2025-03-12 10:08:52.737348,-0.125,-0.038,0.697,-0.526,-0.496,5.859
2025-03-12 10:08:52.789049,-0.126,-0.036,0.706,-0.557,-0.496,5.966
2025-03-12 10:08:52.840868,-0.117,-0.034,0.703,-0.343,-0.641,5.898
2025-03-12 10:08:52.892488,-0.117,-0.037,0.697,-0.610,-0.702,5.684
2025-03-12 10:08:52.944955,-0.127,-0.040,0.705,-0.565,-0.404,5.715
2025-03-12 10:08:52.997513,-0.110,-0.033,0.706,-0.511,-0.221,5.745
2025-03-12 10:08:53.048997,-0.128,-0.038,0.709,-0.443,-0.610,5.776
2025-03-12 10:08:53.101983,-0.117,-0.034,0.698,-0.526,-0.610,5.867
2025-03-12 10:08:53.155013,-0.124,-0.037,0.702,-0.534,-0.710,5.699
2025-03-12 10:08:53.206204,-0.119,-0.030,0.698,-0.557,-0.549,5.730
2025-03-12 10:08:53.259075,-0.128,-0.039,0.702,-0.511,-0.549,5.699
2025-03-12 10:08:53.309888,-0.113,-0.031,0.694,-0.732,-0.618,5.852
2025-03-12 10:08:53.362470,-0.128,-0.030,0.690,-0.496,-0.710,5.707
2025-03-12 10:08:53.413882,-0.127,-0.038,0.704,-0.443,-0.656,5.798
2025-03-12 10:08:53.466920,-0.114,-0.029,0.702,-0.519,-0.587,5.798
2025-03-12 10:08:53.518587,-0.124,-0.041,0.701,-0.542,-0.519,5.829
2025-03-12 10:08:53.571897,-0.117,-0.036,0.697,-0.519,-0.542,5.638
2025-03-12 10:08:53.622418,-0.129,-0.032,0.699,-0.381,-0.511,5.760
2025-03-12 10:08:53.675024,-0.120,-0.031,0.695,-0.488,-0.542,5.859
2025-03-12 10:08:53.726942,-0.132,-0.035,0.707,-0.587,-0.443,5.875
2025-03-12 10:08:53.778267,-0.113,-0.030,0.695,-0.664,-0.580,5.798
2025-03-12 10:08:53.830664,-0.117,-0.039,0.697,-0.458,-0.618,5.760
2025-03-12 10:08:53.883350,-0.132,-0.038,0.693,-0.511,-0.626,5.699
2025-03-12 10:08:53.934661,-0.123,-0.035,0.696,-0.336,-0.587,5.821
2025-03-12 10:08:53.987064,-0.122,-0.029,0.699,-0.443,-0.496,5.737
2025-03-12 10:08:54.039051,-0.119,-0.037,0.698,-0.435,-0.519,5.791
2025-03-12 10:08:54.091992,-0.120,-0.033,0.700,-0.427,-0.412,5.737
2025-03-12 10:08:54.144054,-0.123,-0.039,0.700,-0.481,-0.519,5.875
2025-03-12 10:08:54.197431,-0.114,-0.034,0.703,-0.633,-0.587,6.027
2025-03-12 10:08:54.249060,-0.129,-0.037,0.700,-0.565,-0.725,5.692
2025-03-12 10:08:54.301106,-0.113,-0.031,0.707,-0.549,-0.809,5.829
2025-03-12 10:08:54.353069,-0.125,-0.040,0.704,-0.603,-0.412,5.928
2025-03-12 10:08:54.405185,-0.116,-0.033,0.700,-0.282,-0.649,5.821
2025-03-12 10:08:54.457130,-0.124,-0.034,0.695,-0.526,-0.671,5.859
2025-03-12 10:08:54.509575,-0.119,-0.038,0.699,-0.443,-0.427,5.989
2025-03-12 10:08:54.561820,-0.125,-0.036,0.707,-0.656,-0.511,5.791
2025-03-12 10:08:54.614922,-0.122,-0.031,0.704,-0.488,-0.855,5.837
2025-03-12 10:08:54.666650,-0.129,-0.034,0.701,-0.496,-0.534,5.890
2025-03-12 10:08:54.718406,-0.121,-0.034,0.699,-0.519,-0.488,5.890
2025-03-12 10:08:54.770253,-0.116,-0.032,0.701,-0.488,-0.488,5.882
2025-03-12 10:08:54.821443,-0.125,-0.041,0.696,-0.595,-0.488,5.852
2025-03-12 10:08:54.873935,-0.121,-0.030,0.704,-0.534,-0.473,5.821
2025-03-12 10:08:54.926026,-0.125,-0.034,0.702,-0.633,-0.504,5.791
2025-03-12 10:08:54.978098,-0.121,-0.035,0.704,-0.526,-0.465,5.798
2025-03-12 10:08:55.030680,-0.123,-0.033,0.703,-0.626,-0.542,5.829
2025-03-12 10:08:55.082994,-0.119,-0.035,0.706,-0.618,-0.641,5.676
2025-03-12 10:08:55.135246,-0.126,-0.038,0.707,-0.633,-0.687,5.814
2025-03-12 10:08:55.186383,-0.112,-0.037,0.713,-0.443,-0.633,5.837
2025-03-12 10:08:55.237979,-0.129,-0.037,0.697,-0.565,-0.565,5.913
2025-03-12 10:08:55.290419,-0.126,-0.040,0.695,-0.511,-0.641,5.837
2025-03-12 10:08:55.342036,-0.123,-0.034,0.696,-0.549,-0.534,5.798
2025-03-12 10:08:55.394689,-0.121,-0.033,0.692,-0.557,-0.580,5.867
2025-03-12 10:08:55.447526,-0.123,-0.034,0.705,-0.427,-0.458,5.798
2025-03-12 10:08:55.500052,-0.120,-0.033,0.695,-0.435,-0.542,5.867
2025-03-12 10:08:55.552921,-0.122,-0.035,0.703,-0.504,-0.732,5.875
2025-03-12 10:08:55.603684,-0.132,-0.040,0.703,-0.473,-0.572,5.791
2025-03-12 10:08:55.656929,-0.122,-0.033,0.706,-0.595,-0.450,5.692
2025-03-12 10:08:55.708933,-0.130,-0.035,0.707,-0.679,-0.481,5.921
2025-03-12 10:08:55.760591,-0.119,-0.034,0.697,-0.618,-0.565,5.776
2025-03-12 10:08:55.812980,-0.118,-0.034,0.702,-0.473,-0.557,5.852
2025-03-12 10:08:55.864995,-0.121,-0.033,0.702,-0.511,-0.313,5.722
2025-03-12 10:08:55.918022,-0.123,-0.033,0.696,-0.267,0.443,6.035
2025-03-12 10:08:55.970158,-0.109,-0.035,0.693,-0.229,-0.153,6.119
2025-03-12 10:08:56.022304,-0.131,-0.036,0.697,-0.313,-0.031,6.058
2025-03-12 10:08:56.074809,-0.114,-0.036,0.699,-0.259,-0.031,5.936
2025-03-12 10:08:56.126336,-0.111,-0.030,0.707,-0.320,-0.282,5.997
2025-03-12 10:08:56.178392,-0.132,-0.040,0.701,-0.336,0.000,6.027
2025-03-12 10:08:56.232143,-0.127,-0.032,0.700,-0.420,-0.305,5.791
2025-03-12 10:08:56.283022,-0.131,-0.042,0.705,-0.328,-0.580,5.753
2025-03-12 10:08:56.335936,-0.130,-0.034,0.696,-0.656,-0.824,5.745
2025-03-12 10:08:56.389565,-0.130,-0.035,0.698,-0.603,-0.771,5.653
2025-03-12 10:08:56.441804,-0.118,-0.033,0.697,-0.504,-0.710,5.669
2025-03-12 10:08:56.492438,-0.132,-0.036,0.710,-0.389,-0.526,5.661
2025-03-12 10:08:56.544065,-0.114,-0.032,0.704,-0.580,-0.595,5.707
2025-03-12 10:08:56.596971,-0.126,-0.038,0.696,-0.580,-0.412,5.722
2025-03-12 10:08:56.649169,-0.130,-0.034,0.700,-0.565,-0.618,5.776
2025-03-12 10:08:56.700369,-0.142,-0.030,0.698,-0.664,-0.336,5.669
2025-03-12 10:08:56.752449,-0.113,-0.040,0.700,-0.679,-1.091,5.676
2025-03-12 10:08:56.805009,-0.122,-0.029,0.699,-0.664,-0.816,5.631
2025-03-12 10:08:56.856495,-0.110,-0.031,0.706,-0.610,-0.801,5.821
2025-03-12 10:08:56.908519,-0.111,-0.036,0.709,-0.641,-0.610,5.715
2025-03-12 10:08:56.960637,-0.136,-0.038,0.703,-0.641,-0.885,5.760
2025-03-12 10:08:57.012698,-0.107,-0.027,0.701,-0.641,-1.465,5.615
2025-03-12 10:08:57.065580,-0.124,-0.033,0.694,-0.511,-1.152,5.669
2025-03-12 10:08:57.117469,-0.114,-0.031,0.697,-0.275,0.160,5.882
2025-03-12 10:08:57.169051,-0.118,-0.034,0.688,-0.122,0.847,5.806
2025-03-12 10:08:57.221957,-0.115,-0.036,0.697,0.305,1.823,5.623
2025-03-12 10:08:57.273479,-0.124,-0.038,0.705,0.275,1.144,5.661
2025-03-12 10:08:57.325694,-0.125,-0.033,0.716,0.137,0.565,5.760
2025-03-12 10:08:57.377917,-0.131,-0.037,0.701,-0.801,-1.503,6.020
2025-03-12 10:08:57.430170,-0.123,-0.033,0.701,-0.565,-1.884,5.982
2025-03-12 10:08:57.482273,-0.121,-0.043,0.697,-1.228,-0.412,6.004
2025-03-12 10:08:57.535108,-0.120,-0.042,0.689,-0.618,0.221,6.432
2025-03-12 10:08:57.587116,-0.035,-0.016,0.695,-0.473,0.465,8.614
2025-03-12 10:08:57.639691,-0.099,-0.035,0.680,1.625,-1.793,12.184
2025-03-12 10:08:57.690810,-0.113,-0.027,0.699,1.335,-1.373,13.230
2025-03-12 10:08:57.743007,-0.122,-0.026,0.687,2.121,0.320,13.191
2025-03-12 10:08:57.794253,-0.056,-0.003,0.701,1.808,2.495,16.388
2025-03-12 10:08:57.846967,-0.100,-0.029,0.710,1.549,3.830,20.211
2025-03-12 10:08:57.899452,-0.116,-0.052,0.728,-0.008,3.548,21.439
2025-03-12 10:08:57.952218,-0.136,-0.054,0.716,-2.007,4.387,21.691
2025-03-12 10:08:58.004475,-0.105,-0.051,0.724,-4.410,7.424,22.255
2025-03-12 10:08:58.056970,-0.017,-0.047,0.730,-5.539,-0.183,30.053
2025-03-12 10:08:58.110057,0.006,-0.083,0.701,-7.492,-4.799,41.810
2025-03-12 10:08:58.161900,-0.063,-0.138,0.756,-10.796,0.832,44.930
2025-03-12 10:08:58.214084,-0.063,-0.167,0.728,-15.435,4.257,44.228
2025-03-12 10:08:58.265854,-0.040,-0.121,0.711,-17.380,7.179,43.343
2025-03-12 10:08:58.318405,-0.029,-0.169,0.813,-18.074,3.799,47.234
2025-03-12 10:08:58.370150,0.015,-0.141,0.752,-16.777,-9.354,51.888
2025-03-12 10:08:58.423062,0.005,-0.127,0.717,-14.046,-13.878,52.346
2025-03-12 10:08:58.475969,-0.051,-0.076,0.739,-16.464,-7.675,44.396
2025-03-12 10:08:58.527177,-0.113,-0.054,0.826,-23.980,-5.791,41.978
2025-03-12 10:08:58.579321,-0.019,-0.030,0.761,-34.058,-0.427,40.810
2025-03-12 10:08:58.631565,-0.075,-0.106,0.863,-43.069,-7.050,44.335
2025-03-12 10:08:58.683374,-0.054,-0.044,0.823,-49.767,-27.779,46.136
2025-03-12 10:08:58.736075,-0.161,0.038,0.956,-59.358,-54.711,57.527
2025-03-12 10:08:58.788993,-0.271,0.124,1.042,-70.932,-87.648,62.905
2025-03-12 10:08:58.841226,-0.265,-0.082,0.815,-78.622,-84.703,68.353
2025-03-12 10:08:58.893603,-0.315,-0.217,0.752,-80.682,-71.420,52.491
2025-03-12 10:08:58.946263,-0.156,-0.274,0.789,-86.908,-52.171,45.701
2025-03-12 10:08:58.998657,-0.103,-0.224,0.904,-94.110,-47.173,40.253
2025-03-12 10:08:59.050687,-0.206,-0.046,1.110,-105.005,-52.949,33.043
2025-03-12 10:08:59.101547,-0.131,-0.240,1.049,-96.124,-61.021,28.290
2025-03-12 10:08:59.154858,-0.213,-0.396,1.022,-61.570,-60.540,27.001
2025-03-12 10:08:59.206802,-0.102,-0.302,1.074,-23.537,-63.767,27.031
2025-03-12 10:08:59.259105,-0.158,-0.235,1.203,-7.126,-78.897,31.121
2025-03-12 10:08:59.311835,-0.164,-0.214,1.035,4.334,-64.271,28.504
2025-03-12 10:08:59.363528,-0.140,-0.196,0.987,11.994,-53.979,26.864
2025-03-12 10:08:59.415117,-0.103,-0.275,0.937,17.769,-37.049,34.043
2025-03-12 10:08:59.468339,-0.039,-0.207,0.919,16.556,-35.027,39.818
2025-03-12 10:08:59.520076,-0.036,-0.093,1.147,-1.328,-46.433,39.750
2025-03-12 10:08:59.571991,0.058,-0.114,1.135,-13.397,-61.250,41.726
2025-03-12 10:08:59.624611,0.138,-0.263,1.015,-7.156,-65.370,39.239
2025-03-12 10:08:59.676165,0.174,-0.322,0.943,12.329,-42.191,30.175
2025-03-12 10:08:59.728536,0.130,-0.327,0.916,31.815,-16.167,20.188
2025-03-12 10:08:59.781027,0.136,-0.293,0.885,44.251,8.545,17.082
2025-03-12 10:08:59.833223,0.113,-0.309,0.823,48.157,25.811,20.356
2025-03-12 10:08:59.884978,0.136,-0.243,0.746,49.012,47.883,20.607
2025-03-12 10:08:59.937725,0.118,-0.221,0.834,43.145,52.949,24.903
2025-03-12 10:08:59.990149,0.156,-0.180,0.875,33.738,42.550,23.911
2025-03-12 10:09:00.042086,0.128,-0.163,0.931,27.100,30.922,23.888
2025-03-12 10:09:00.094280,0.098,-0.143,0.914,22.934,14.618,23.453
2025-03-12 10:09:00.146946,0.028,-0.234,0.830,27.146,13.169,19.203
2025-03-12 10:09:00.199253,0.022,-0.297,0.689,36.515,40.757,11.528
2025-03-12 10:09:00.251652,-0.074,-0.221,0.703,40.940,66.018,11.894
2025-03-12 10:09:00.304023,-0.042,-0.122,0.697,35.622,81.048,20.401
2025-03-12 10:09:00.356106,-0.006,-0.180,0.702,29.969,79.194,32.563
2025-03-12 10:09:00.407969,0.045,-0.153,0.723,25.460,66.041,37.392
2025-03-12 10:09:00.460267,0.088,-0.112,0.761,19.982,56.817,36.301
2025-03-12 10:09:00.512784,0.063,-0.109,0.770,17.975,58.160,30.251
2025-03-12 10:09:00.564860,0.026,-0.109,0.793,22.393,62.158,21.653
2025-03-12 10:09:00.616344,-0.026,-0.156,0.757,30.007,64.515,12.787
2025-03-12 10:09:00.668512,-0.062,-0.247,0.627,46.403,74.060,12.306
2025-03-12 10:09:00.720694,-0.067,-0.192,0.590,60.754,79.736,13.207
2025-03-12 10:09:00.772318,-0.086,-0.098,0.568,60.739,90.082,12.787
2025-03-12 10:09:00.824910,-0.070,-0.091,0.537,53.666,99.458,13.367
2025-03-12 10:09:00.876065,-0.116,-0.106,0.521,46.769,102.090,17.441
2025-03-12 10:09:00.927997,-0.147,-0.080,0.515,37.400,103.220,17.060
2025-03-12 10:09:00.980022,-0.199,-0.095,0.555,26.993,107.820,13.527
2025-03-12 10:09:01.032848,-0.254,-0.099,0.498,20.577,117.922,9.697
2025-03-12 10:09:01.085138,-0.314,-0.097,0.514,17.082,131.693,8.225
2025-03-12 10:09:01.138097,-0.370,-0.059,0.543,12.543,141.398,9.705
2025-03-12 10:09:01.189774,-0.358,-0.036,0.549,8.530,143.023,17.487
2025-03-12 10:09:01.242488,-0.313,-0.052,0.482,4.906,146.967,24.537
2025-03-12 10:09:01.294882,-0.311,-0.139,0.466,10.979,147.463,29.633
2025-03-12 10:09:01.346486,-0.361,-0.138,0.409,18.982,148.890,32.982
2025-03-12 10:09:01.398223,-0.379,-0.094,0.419,20.737,152.789,31.853
2025-03-12 10:09:01.450375,-0.443,-0.040,0.430,14.275,154.536,30.236
2025-03-12 10:09:01.502359,-0.449,-0.025,0.408,7.645,158.366,28.275
2025-03-12 10:09:01.555069,-0.422,-0.056,0.398,4.089,160.456,25.101
2025-03-12 10:09:01.607149,-0.378,-0.078,0.358,4.753,161.288,23.392
2025-03-12 10:09:01.659097,-0.438,-0.070,0.378,6.569,143.755,26.841
2025-03-12 10:09:01.710689,-0.428,-0.076,0.339,4.753,127.527,26.177
2025-03-12 10:09:01.762835,-0.473,-0.052,0.312,-0.649,121.241,21.599
2025-03-12 10:09:01.815782,-0.518,-0.022,0.254,-7.263,123.499,15.114
2025-03-12 10:09:01.868029,-0.597,-0.035,0.279,-13.832,122.950,10.529
2025-03-12 10:09:01.919466,-0.591,-0.006,0.220,-18.509,129.107,7.782
2025-03-12 10:09:01.972118,-0.715,-0.038,0.200,-20.661,139.208,7.721
2025-03-12 10:09:02.024153,-0.738,-0.019,0.151,-23.476,166.110,9.766
2025-03-12 10:09:02.077002,-0.743,-0.037,0.138,-26.131,188.067,14.000
2025-03-12 10:09:02.129183,-0.663,-0.051,0.158,-27.810,196.902,21.141
2025-03-12 10:09:02.181007,-0.661,-0.022,0.183,-27.924,186.458,20.081
2025-03-12 10:09:02.234025,-0.669,-0.007,0.209,-25.322,187.533,9.178
2025-03-12 10:09:02.284905,-0.787,-0.047,0.188,-26.253,176.799,-2.701
2025-03-12 10:09:02.338816,-0.865,-0.016,0.157,-26.963,176.310,-10.323
2025-03-12 10:09:02.391057,-1.031,-0.037,0.075,-29.282,171.023,-12.825
2025-03-12 10:09:02.442284,-1.079,-0.044,-0.025,-31.701,204.746,-16.228
2025-03-12 10:09:02.494585,-1.066,-0.020,-0.008,-37.499,243.458,-21.111
2025-03-12 10:09:02.546061,-0.844,-0.074,0.008,-41.390,247.318,-12.520
2025-03-12 10:09:02.599199,-0.850,-0.066,0.094,-31.502,242.084,-5.501
2025-03-12 10:09:02.651128,-0.794,-0.056,0.125,-16.930,195.323,-7.202
2025-03-12 10:09:02.703230,-0.862,-0.077,0.097,-0.534,148.714,-17.037
2025-03-12 10:09:02.753984,-0.934,-0.131,-0.154,13.840,144.266,-29.648
2025-03-12 10:09:02.806550,-1.004,-0.071,-0.200,22.858,165.812,-41.627
2025-03-12 10:09:02.859053,-1.060,-0.045,-0.231,21.164,189.982,-58.022
2025-03-12 10:09:02.911599,-0.887,-0.105,-0.226,14.351,212.413,-66.346
2025-03-12 10:09:02.964094,-0.715,-0.138,-0.233,12.436,202.678,-62.371
2025-03-12 10:09:03.016079,-0.613,-0.119,-0.164,17.685,163.081,-43.977
2025-03-12 10:09:03.067147,-0.594,-0.069,-0.148,25.406,102.815,-39.269
2025-03-12 10:09:03.120056,-0.566,-0.051,-0.153,28.031,61.471,-43.305
2025-03-12 10:09:03.172315,-0.582,-0.035,-0.164,25.566,25.582,-49.462
2025-03-12 10:09:03.225577,-0.592,-0.089,-0.272,21.645,6.355,-54.566
2025-03-12 10:09:03.277530,-0.682,-0.217,-0.298,21.004,-5.913,-62.715
2025-03-12 10:09:03.328980,-0.599,-0.208,-0.361,19.623,-5.577,-68.475
2025-03-12 10:09:03.380950,-0.605,-0.217,-0.258,14.748,-13.848,-60.021
2025-03-12 10:09:03.432978,-0.585,-0.096,-0.154,8.301,-58.114,-42.473
2025-03-12 10:09:03.485387,-0.593,0.025,-0.098,4.135,-119.623,-22.225
2025-03-12 10:09:03.536785,-0.590,-0.175,-0.306,7.126,-161.639,-10.544
2025-03-12 10:09:03.590446,-0.598,-0.276,-0.397,17.082,-158.770,-11.208
2025-03-12 10:09:03.641531,-0.555,-0.242,-0.392,23.674,-145.075,-19.707
2025-03-12 10:09:03.692974,-0.544,-0.185,-0.337,23.461,-131.823,-29.107
2025-03-12 10:09:03.745057,-0.461,-0.095,-0.126,14.130,-156.931,-24.987
2025-03-12 10:09:03.796094,-0.478,0.010,-0.043,5.509,-214.328,-14.237
2025-03-12 10:09:03.848522,-0.468,-0.135,-0.088,0.961,-252.682,0.565
2025-03-12 10:09:03.900655,-0.536,-0.242,-0.160,5.272,-252.682,1.617
2025-03-12 10:09:03.952271,-0.579,-0.249,-0.031,7.248,-252.682,-5.730
2025-03-12 10:09:04.004284,-0.630,-0.129,0.086,1.129,-252.682,-0.076
2025-03-12 10:09:04.055891,-0.867,-0.148,0.135,-7.256,-252.682,4.273
2025-03-12 10:09:04.106460,-0.886,-0.260,-0.181,-1.762,-252.682,-2.358
2025-03-12 10:09:04.158194,-0.808,-0.331,-0.173,4.753,-252.682,-8.865
2025-03-12 10:09:04.210238,-0.727,-0.321,-0.036,6.256,-220.005,-7.469
2025-03-12 10:09:04.262762,-0.682,-0.218,0.156,-5.623,-179.789,2.083
2025-03-12 10:09:04.314889,-0.754,-0.104,0.321,-17.998,-190.890,10.414
2025-03-12 10:09:04.367492,-0.691,-0.109,0.335,-28.855,-201.480,24.689
2025-03-12 10:09:04.419463,-0.665,-0.194,0.440,-35.828,-219.432,35.660
2025-03-12 10:09:04.470976,-0.657,-0.274,0.450,-37.354,-252.232,40.925
2025-03-12 10:09:04.522777,-0.680,-0.314,0.361,-36.271,-252.682,34.142
2025-03-12 10:09:04.574284,-0.569,-0.350,0.354,-26.444,-246.403,20.851
2025-03-12 10:09:04.625398,-0.536,-0.267,0.468,-17.884,-232.403,22.545
2025-03-12 10:09:04.677995,-0.430,-0.261,0.610,-21.683,-224.475,22.019
2025-03-12 10:09:04.728654,-0.365,-0.382,0.656,-22.072,-212.406,17.136
2025-03-12 10:09:04.782180,-0.330,-0.390,0.732,-12.711,-216.197,8.118
2025-03-12 10:09:04.833991,-0.326,-0.333,0.924,-7.958,-240.299,-2.747
2025-03-12 10:09:04.886872,-0.308,-0.303,1.111,-15.869,-252.682,1.572
2025-03-12 10:09:04.938648,-0.327,-0.377,1.096,-17.998,-252.682,10.246
2025-03-12 10:09:04.990109,-0.255,-0.373,1.101,-12.200,-252.682,19.806
2025-03-12 10:09:05.042854,-0.080,-0.484,1.159,-4.509,-252.682,21.691
2025-03-12 10:09:05.094390,0.071,-0.425,1.319,9.201,-252.682,22.950
2025-03-12 10:09:05.147110,0.217,-0.380,1.373,22.934,-252.682,24.620
2025-03-12 10:09:05.199145,0.333,-0.465,1.384,40.261,-252.682,28.176
2025-03-12 10:09:05.250901,0.463,-0.440,1.311,57.404,-252.682,27.489
2025-03-12 10:09:05.303082,0.623,-0.418,1.224,64.889,-252.682,22.774
2025-03-12 10:09:05.354243,0.695,-0.376,1.226,59.991,-252.682,17.006
2025-03-12 10:09:05.405795,0.781,-0.330,1.217,48.569,-252.682,14.878
2025-03-12 10:09:05.457918,0.871,-0.311,1.205,33.486,-252.682,17.319
2025-03-12 10:09:05.509046,0.978,-0.303,1.197,24.865,-252.682,19.860
2025-03-12 10:09:05.560640,1.130,-0.311,1.181,22.164,-252.682,17.311
2025-03-12 10:09:05.612785,1.298,-0.293,1.180,25.444,-215.976,12.924
2025-03-12 10:09:05.665064,1.414,-0.284,1.165,26.886,-179.492,-0.977
2025-03-12 10:09:05.717056,1.470,-0.276,1.128,20.432,-147.623,-22.354
2025-03-12 10:09:05.768887,1.483,-0.297,1.033,15.229,-109.644,-47.265
2025-03-12 10:09:05.821284,1.460,-0.280,0.977,10.040,-80.957,-64.698
2025-03-12 10:09:05.872541,1.381,-0.237,0.957,3.273,-62.341,-70.352
2025-03-12 10:09:05.924971,1.342,-0.222,0.974,-3.075,-50.958,-71.481
2025-03-12 10:09:05.977637,1.322,-0.264,0.918,0.298,-43.824,-73.846
2025-03-12 10:09:06.029080,1.295,-0.270,0.852,10.994,-32.746,-75.586
2025-03-12 10:09:06.081500,1.245,-0.270,0.765,22.965,-11.696,-77.646
2025-03-12 10:09:06.133733,1.225,-0.239,0.648,34.768,16.678,-81.544
2025-03-12 10:09:06.185197,1.204,-0.236,0.565,43.717,46.693,-86.099
2025-03-12 10:09:06.237086,1.154,-0.214,0.535,42.977,66.079,-90.486
2025-03-12 10:09:06.288813,1.097,-0.181,0.518,31.853,85.138,-93.370
2025-03-12 10:09:06.342136,1.043,-0.204,0.444,23.758,100.443,-89.052
2025-03-12 10:09:06.393616,0.964,-0.201,0.337,25.322,123.148,-84.764
2025-03-12 10:09:06.445887,0.883,-0.163,0.286,32.288,159.297,-83.154
2025-03-12 10:09:06.498086,0.784,-0.115,0.223,38.231,201.495,-82.185
2025-03-12 10:09:06.549112,0.710,-0.123,0.203,38.712,246.059,-80.896
2025-03-12 10:09:06.600157,0.626,-0.103,0.205,36.057,247.318,-75.219
2025-03-12 10:09:06.652665,0.548,-0.086,0.215,28.168,247.318,-65.881
2025-03-12 10:09:06.703694,0.486,-0.110,0.185,17.319,247.318,-55.756
2025-03-12 10:09:06.755869,0.331,-0.077,0.253,7.782,247.318,-46.731
2025-03-12 10:09:06.809137,0.278,-0.036,0.292,-9.392,247.318,-37.102
2025-03-12 10:09:06.860496,0.169,-0.072,0.266,-23.812,247.318,-29.793
2025-03-12 10:09:06.913201,0.020,-0.061,0.215,-27.710,247.318,-22.049
2025-03-12 10:09:06.964780,-0.124,-0.057,0.210,-26.261,247.318,-13.596
2025-03-12 10:09:07.016677,-0.212,-0.082,0.210,-21.447,247.318,-1.213
2025-03-12 10:09:07.068350,-0.290,-0.052,0.248,-21.851,247.318,15.755
2025-03-12 10:09:07.120633,-0.341,-0.097,0.232,-26.879,247.318,34.478
2025-03-12 10:09:07.173417,-0.322,-0.083,0.205,-34.615,247.318,49.126
2025-03-12 10:09:07.225187,-0.304,-0.083,0.190,-46.525,247.318,55.337
2025-03-12 10:09:07.277069,-0.314,-0.070,0.197,-57.824,247.318,52.926
2025-03-12 10:09:07.329178,-0.293,-0.112,0.206,-64.195,247.318,47.539
2025-03-12 10:09:07.382719,-0.373,-0.105,0.263,-64.706,247.318,40.429
2025-03-12 10:09:07.435086,-0.410,-0.107,0.226,-64.202,247.318,31.075
2025-03-12 10:09:07.487154,-0.427,-0.112,0.237,-65.660,247.318,25.597
2025-03-12 10:09:07.540354,-0.477,-0.088,0.256,-67.628,247.318,23.392
2025-03-12 10:09:07.592217,-0.506,-0.112,0.211,-64.958,247.318,23.461
2025-03-12 10:09:07.645113,-0.494,-0.107,0.145,-62.051,220.363,23.873
2025-03-12 10:09:07.697256,-0.517,-0.117,0.117,-62.043,179.736,28.946
2025-03-12 10:09:07.748624,-0.490,-0.070,0.035,-64.622,144.068,26.337
2025-03-12 10:09:07.801431,-0.509,-0.092,-0.051,-66.316,133.791,14.893
2025-03-12 10:09:07.854081,-0.497,-0.082,-0.037,-69.001,125.772,3.136
2025-03-12 10:09:07.906488,-0.565,-0.105,-0.084,-70.191,115.808,-6.645
2025-03-12 10:09:07.958164,-0.616,-0.096,-0.126,-66.499,128.504,-15.404
2025-03-12 10:09:08.010320,-0.611,-0.148,-0.082,-59.098,136.515,-11.872
2025-03-12 10:09:08.063465,-0.618,-0.067,-0.045,-52.094,123.484,1.534
2025-03-12 10:09:08.115319,-0.577,-0.038,-0.042,-43.175,98.680,11.040
2025-03-12 10:09:08.168197,-0.478,0.002,-0.041,-35.920,72.290,14.405
2025-03-12 10:09:08.220136,-0.387,0.005,-0.049,-26.429,41.947,13.756
2025-03-12 10:09:08.271763,-0.350,-0.041,-0.069,-15.480,12.711,8.659
2025-03-12 10:09:08.325234,-0.327,0.041,-0.040,-7.042,-22.354,4.265
2025-03-12 10:09:08.377336,-0.285,0.011,-0.018,-1.274,-63.592,0.526
2025-03-12 10:09:08.430228,-0.329,0.032,0.029,1.289,-106.996,-8.782
2025-03-12 10:09:08.480546,-0.299,0.049,0.068,4.585,-149.226,-18.853
2025-03-12 10:09:08.533135,-0.277,0.018,0.077,10.002,-185.977,-20.699
2025-03-12 10:09:08.585496,-0.301,0.022,0.071,22.980,-220.386,-22.866
2025-03-12 10:09:08.637270,-0.319,0.036,0.074,36.423,-244.984,-29.160
2025-03-12 10:09:08.689114,-0.370,-0.006,0.123,44.060,-249.004,-38.849
2025-03-12 10:09:08.742088,-0.353,-0.047,0.221,41.932,-237.072,-47.959
2025-03-12 10:09:08.794425,-0.390,-0.116,0.275,38.041,-208.537,-53.864
2025-03-12 10:09:08.846610,-0.550,-0.187,0.201,51.125,-162.654,-61.440
2025-03-12 10:09:08.897187,-0.716,-0.114,0.189,77.379,-119.898,-47.341
2025-03-12 10:09:08.949488,-0.765,-0.037,0.213,97.597,-117.884,-14.511
2025-03-12 10:09:09.001514,-0.676,0.017,0.284,93.706,-121.729,14.374
2025-03-12 10:09:09.054159,-0.565,-0.042,0.307,66.369,-110.742,29.435
2025-03-12 10:09:09.105510,-0.564,-0.065,0.402,40.383,-87.388,24.163
2025-03-12 10:09:09.156554,-0.622,-0.107,0.477,26.329,-70.123,16.350
2025-03-12 10:09:09.210029,-0.778,0.026,0.637,19.646,-68.116,17.853
2025-03-12 10:09:09.261030,-0.860,0.081,0.736,14.374,-88.952,31.685
2025-03-12 10:09:09.313509,-0.898,0.106,0.722,11.330,-103.243,42.405
2025-03-12 10:09:09.365706,-0.813,0.026,0.706,-0.183,-74.861,36.706
2025-03-12 10:09:09.417569,-0.846,-0.069,0.755,-16.915,-19.211,18.936
2025-03-12 10:09:09.469834,-1.054,-0.078,0.809,-35.996,25.544,10.956
2025-03-12 10:09:09.523365,-1.359,0.029,0.950,-59.121,61.501,14.687
2025-03-12 10:09:09.575260,-1.506,0.027,1.120,-77.134,74.098,24.071
2025-03-12 10:09:09.627191,-1.559,-0.143,1.172,-82.506,78.485,26.696
2025-03-12 10:09:09.679772,-1.566,-0.178,1.235,-80.034,82.689,21.317
2025-03-12 10:09:09.731133,-1.591,-0.199,1.303,-79.759,86.404,8.843
2025-03-12 10:09:09.784497,-1.677,-0.269,1.341,-78.592,76.463,7.347
2025-03-12 10:09:09.836161,-1.665,-0.292,1.392,-74.250,51.316,14.244
2025-03-12 10:09:09.888139,-1.603,-0.323,1.402,-67.018,21.881,24.804
2025-03-12 10:09:09.939202,-1.568,-0.350,1.392,-58.602,-4.952,42.329
2025-03-12 10:09:09.991512,-1.478,-0.344,1.308,-47.158,-12.001,56.748
2025-03-12 10:09:10.043834,-1.369,-0.338,1.231,-36.164,3.227,63.668
2025-03-12 10:09:10.096119,-1.284,-0.300,1.214,-29.747,20.829,68.376
2025-03-12 10:09:10.149123,-1.145,-0.289,1.165,-26.078,31.487,72.366
2025-03-12 10:09:10.201205,-1.000,-0.261,1.134,-20.836,24.041,76.379
2025-03-12 10:09:10.252201,-0.774,-0.267,1.050,-14.412,8.560,72.930
2025-03-12 10:09:10.304328,-0.690,-0.262,0.969,-8.515,-10.704,62.799
2025-03-12 10:09:10.356328,-0.637,-0.168,1.019,-19.257,-30.755,60.258
2025-03-12 10:09:10.407867,-0.668,-0.190,0.981,-28.374,-31.762,61.479
2025-03-12 10:09:10.459918,-0.666,-0.237,0.940,-13.710,-33.616,69.039
2025-03-12 10:09:10.511926,-0.584,-0.237,0.844,14.046,-36.584,77.630
2025-03-12 10:09:10.562435,-0.451,-0.221,0.757,40.452,-32.204,78.904
2025-03-12 10:09:10.614585,-0.344,-0.186,0.644,57.687,-31.083,75.044
2025-03-12 10:09:10.665512,-0.290,-0.111,0.626,55.291,-28.298,69.650
2025-03-12 10:09:10.718550,-0.271,-0.117,0.527,49.897,-17.159,62.478
2025-03-12 10:09:10.770688,-0.229,-0.109,0.463,53.452,-18.669,61.372
2025-03-12 10:09:10.823275,-0.150,-0.086,0.379,60.502,-34.585,63.943
2025-03-12 10:09:10.874101,-0.046,-0.040,0.255,65.850,-50.469,60.365
2025-03-12 10:09:10.926369,0.054,-0.024,0.110,66.087,-66.262,53.063
2025-03-12 10:09:10.978590,0.122,0.077,0.105,51.591,-78.164,43.771
2025-03-12 10:09:11.031249,0.116,0.091,-0.012,33.707,-74.235,31.540
2025-03-12 10:09:11.083921,0.093,0.044,-0.117,28.321,-71.901,20.394
2025-03-12 10:09:11.135701,0.060,0.057,-0.209,29.328,-67.140,11.719
2025-03-12 10:09:11.187186,0.081,0.034,-0.328,32.456,-58.587,5.699
2025-03-12 10:09:11.240244,0.105,0.053,-0.370,30.472,-59.541,3.853
2025-03-12 10:09:11.292245,0.198,0.087,-0.397,17.693,-53.468,-0.092
2025-03-12 10:09:11.344412,0.175,0.116,-0.376,1.190,-37.362,-8.896
2025-03-12 10:09:11.397305,0.148,0.063,-0.433,-1.572,-16.922,-22.881
2025-03-12 10:09:11.449178,0.072,0.120,-0.348,3.830,-10.376,-28.252
2025-03-12 10:09:11.500853,0.004,0.135,-0.308,9.567,-10.864,-27.695
2025-03-12 10:09:11.552126,-0.052,0.127,-0.288,14.435,-21.363,-22.652
2025-03-12 10:09:11.604406,-0.058,0.061,-0.297,17.037,-29.755,-23.316
2025-03-12 10:09:11.656945,-0.106,0.035,-0.280,8.896,-24.720,-30.602
2025-03-12 10:09:11.708361,-0.179,0.102,-0.122,-15.259,-8.576,-32.769
2025-03-12 10:09:11.761529,-0.232,0.094,-0.045,-41.039,3.365,-29.404
2025-03-12 10:09:11.812809,-0.281,-0.034,-0.121,-43.984,21.332,-26.886
2025-03-12 10:09:11.864394,-0.300,-0.043,-0.079,-23.919,37.247,-26.741
2025-03-12 10:09:11.916549,-0.286,0.070,0.167,-18.227,44.739,-28.580
2025-03-12 10:09:11.967156,-0.346,0.127,0.390,-31.197,51.110,-30.037
2025-03-12 10:09:12.019192,-0.394,-0.014,0.537,-44.549,50.736,-29.778
2025-03-12 10:09:12.071424,-0.539,-0.076,0.649,-35.538,42.397,-29.953
2025-03-12 10:09:12.123459,-0.793,0.056,0.757,-16.503,29.831,-30.632
2025-03-12 10:09:12.176005,-0.918,0.085,0.857,0.443,10.811,-28.786
2025-03-12 10:09:12.228043,-1.036,0.198,0.932,-7.095,-6.172,-25.437
2025-03-12 10:09:12.278598,-1.071,0.176,1.023,-32.753,-5.699,-25.330
2025-03-12 10:09:12.329760,-1.137,0.140,1.099,-52.667,-8.385,-24.483
2025-03-12 10:09:12.381344,-1.135,0.167,1.201,-75.021,-20.783,-27.001
2025-03-12 10:09:12.433454,-1.348,0.126,1.586,-91.348,-14.290,-33.181
2025-03-12 10:09:12.486419,-1.377,0.037,1.777,-88.991,-10.918,-33.135
2025-03-12 10:09:12.538186,-1.429,0.000,1.881,-65.286,-16.327,-30.694
2025-03-12 10:09:12.590766,-1.369,-0.083,1.881,-48.493,-12.520,-29.725
2025-03-12 10:09:12.641875,-1.304,-0.146,1.881,-36.271,-5.745,-30.861
2025-03-12 10:09:12.693209,-1.273,-0.137,1.881,-31.029,-0.008,-29.305
2025-03-12 10:09:12.745637,-1.213,-0.142,1.881,-24.399,1.076,-22.622
2025-03-12 10:09:12.798224,-1.116,-0.197,1.835,-4.196,6.493,-15.480
2025-03-12 10:09:12.850236,-1.052,-0.208,1.764,26.345,4.036,-7.370
2025-03-12 10:09:12.903169,-0.974,-0.221,1.632,57.115,1.038,5.608
2025-03-12 10:09:12.955269,-0.863,-0.246,1.461,81.842,0.198,17.685
2025-03-12 10:09:13.007102,-0.739,-0.219,1.294,101.434,-2.373,25.406
2025-03-12 10:09:13.058542,-0.597,-0.200,1.064,114.481,-8.141,27.413
2025-03-12 10:09:13.111368,-0.500,-0.212,0.841,121.180,-15.854,27.207
2025-03-12 10:09:13.162734,-0.420,-0.134,0.644,116.541,-30.327,26.322
2025-03-12 10:09:13.214768,-0.405,-0.104,0.480,102.716,-50.195,26.528
2025-03-12 10:09:13.266009,-0.333,-0.076,0.338,87.358,-64.294,30.381
2025-03-12 10:09:13.318099,-0.318,-0.101,0.256,81.987,-79.049,31.334
2025-03-12 10:09:13.371183,-0.281,-0.089,0.147,89.128,-79.294,26.825
2025-03-12 10:09:13.422453,-0.255,-0.073,-0.040,96.963,-66.270,18.791
2025-03-12 10:09:13.475075,-0.230,-0.031,-0.168,96.445,-53.765,14.168
2025-03-12 10:09:13.527150,-0.261,0.045,-0.115,77.241,-38.567,13.016
2025-03-12 10:09:13.578681,-0.277,0.019,-0.245,60.174,-29.427,14.626
2025-03-12 10:09:13.630567,-0.279,-0.030,-0.320,53.544,-21.805,15.328
2025-03-12 10:09:13.683215,-0.238,-0.019,-0.407,49.821,-20.203,15.564
2025-03-12 10:09:13.735555,-0.165,-0.027,-0.347,38.941,-23.102,16.388
2025-03-12 10:09:13.787484,-0.141,0.029,-0.318,19.799,-21.027,11.933
2025-03-12 10:09:13.839247,-0.131,0.012,-0.322,3.723,-12.566,2.411
2025-03-12 10:09:13.891268,-0.120,-0.072,-0.341,2.907,-7.546,-3.044
2025-03-12 10:09:13.943559,-0.133,-0.126,-0.426,12.337,-5.844,-7.782
2025-03-12 10:09:13.996036,-0.198,-0.127,-0.521,20.500,-1.244,-6.348
2025-03-12 10:09:14.048188,-0.168,-0.025,-0.396,10.208,-14.321,4.799
2025-03-12 10:09:14.100129,-0.108,0.030,-0.310,-19.104,-38.819,16.403
2025-03-12 10:09:14.152171,-0.046,-0.005,-0.271,-46.860,-56.741,14.351
2025-03-12 10:09:14.204271,-0.031,-0.076,-0.185,-57.267,-62.036,5.791
2025-03-12 10:09:14.256924,-0.088,-0.053,-0.082,-56.611,-53.788,-6.996
2025-03-12 10:09:14.309341,-0.152,-0.054,0.032,-53.285,-40.940,-12.192
2025-03-12 10:09:14.361196,-0.297,-0.031,0.049,-41.726,-31.250,-9.751
2025-03-12 10:09:14.412403,-0.396,0.007,0.208,-39.528,-27.298,5.295
2025-03-12 10:09:14.464260,-0.365,0.074,0.419,-53.826,-38.285,21.706
2025-03-12 10:09:14.515884,-0.304,0.040,0.533,-72.717,-42.130,25.154
2025-03-12 10:09:14.568059,-0.210,0.019,0.742,-86.297,-49.531,14.633
2025-03-12 10:09:14.620613,-0.244,0.039,0.962,-99.054,-49.569,-3.143
2025-03-12 10:09:14.673232,-0.321,0.061,1.186,-106.126,-58.839,-13.420
2025-03-12 10:09:14.725850,-0.454,0.067,1.319,-103.754,-56.962,-18.662
2025-03-12 10:09:14.776448,-0.521,0.049,1.498,-95.010,-48.302,-15.427
2025-03-12 10:09:14.829198,-0.475,-0.013,1.586,-86.687,-24.353,-14.519
2025-03-12 10:09:14.882382,-0.483,0.009,1.699,-88.373,6.912,-20.722
2025-03-12 10:09:14.935278,-0.590,-0.063,1.808,-100.809,31.411,-28.565
2025-03-12 10:09:14.988247,-0.694,-0.033,1.881,-119.043,42.763,-35.584
2025-03-12 10:09:15.040265,-0.799,-0.091,1.881,-139.551,66.804,-40.520
2025-03-12 10:09:15.093302,-0.958,-0.239,1.881,-131.655,87.190,-38.346
2025-03-12 10:09:15.145287,-0.987,-0.246,1.881,-105.760,86.374,-26.596
2025-03-12 10:09:15.196704,-0.909,-0.350,1.881,-77.325,97.810,-19.936
2025-03-12 10:09:15.249345,-0.822,-0.383,1.881,-42.969,84.497,-5.661
2025-03-12 10:09:15.300807,-0.723,-0.450,1.881,-2.998,75.486,8.255
2025-03-12 10:09:15.353030,-0.634,-0.409,1.732,43.572,58.656,16.060
2025-03-12 10:09:15.404697,-0.637,-0.401,1.694,85.718,28.138,25.345
2025-03-12 10:09:15.456194,-0.524,-0.334,1.449,112.673,-7.340,30.396
2025-03-12 10:09:15.508229,-0.449,-0.302,1.212,126.772,-42.962,35.943
2025-03-12 10:09:15.561037,-0.338,-0.284,0.912,133.806,-64.897,36.316
2025-03-12 10:09:15.612797,-0.248,-0.243,0.654,134.150,-67.544,29.114
2025-03-12 10:09:15.665360,-0.172,-0.168,0.436,123.880,-63.378,21.347
2025-03-12 10:09:15.717977,-0.181,-0.114,0.235,107.904,-55.154,13.054
2025-03-12 10:09:15.770279,-0.151,-0.050,0.194,83.925,-38.384,8.629
2025-03-12 10:09:15.822832,-0.187,-0.074,0.119,69.451,-14.473,4.623
2025-03-12 10:09:15.873540,-0.163,-0.108,0.049,69.207,1.823,10.628
2025-03-12 10:09:15.925890,-0.196,-0.086,-0.012,73.739,9.232,15.244
2025-03-12 10:09:15.977707,-0.184,-0.045,-0.089,75.303,14.839,18.624
2025-03-12 10:09:16.029024,-0.184,-0.025,-0.173,71.420,18.463,19.692
2025-03-12 10:09:16.082395,-0.156,0.037,-0.181,57.755,21.668,19.234
2025-03-12 10:09:16.134473,-0.144,0.022,-0.196,44.129,24.125,17.784
2025-03-12 10:09:16.186301,-0.128,0.023,-0.204,35.691,21.759,15.000
2025-03-12 10:09:16.238899,-0.093,-0.003,-0.237,32.631,17.540,11.841
2025-03-12 10:09:16.290394,-0.077,0.023,-0.276,33.173,5.730,7.164
2025-03-12 10:09:16.342235,-0.103,0.060,-0.258,30.472,-8.995,2.968
2025-03-12 10:09:16.394835,-0.116,0.075,-0.246,21.462,-26.726,-0.610
2025-03-12 10:09:16.447443,-0.149,0.043,-0.289,13.428,-42.145,-1.823
2025-03-12 10:09:16.499680,-0.191,0.042,-0.300,7.118,-51.278,0.343
2025-03-12 10:09:16.552026,-0.177,0.020,-0.329,-0.198,-50.881,2.937
2025-03-12 10:09:16.603873,-0.160,0.036,-0.277,-13.466,-40.040,5.440
2025-03-12 10:09:16.656193,-0.103,0.051,-0.166,-32.219,-28.145,7.141
2025-03-12 10:09:16.708307,-0.058,0.004,-0.044,-46.242,-25.498,8.408
2025-03-12 10:09:16.760850,0.013,-0.065,0.063,-48.745,-32.273,5.371
2025-03-12 10:09:16.813267,0.079,-0.004,0.302,-52.186,-52.316,3.197
2025-03-12 10:09:16.865407,0.126,-0.002,0.453,-53.826,-73.846,-2.853
2025-03-12 10:09:16.918438,0.105,-0.102,0.500,-36.416,-80.522,-12.818
2025-03-12 10:09:16.970218,-0.002,-0.050,0.557,-5.386,-76.646,-18.547
2025-03-12 10:09:17.022156,-0.120,0.011,0.620,10.948,-65.393,-14.740
2025-03-12 10:09:17.075206,-0.210,0.074,0.617,7.164,-46.571,-2.327
2025-03-12 10:09:17.126873,-0.193,0.081,0.646,-2.991,-34.760,13.405
2025-03-12 10:09:17.179315,-0.148,0.127,0.771,-23.697,-29.252,19.699
2025-03-12 10:09:17.232152,-0.130,0.171,0.953,-42.275,-40.253,16.899
2025-03-12 10:09:17.283759,-0.148,0.189,1.136,-53.620,-54.459,8.423
2025-03-12 10:09:17.336703,-0.252,0.225,1.264,-56.870,-57.679,-0.809
2025-03-12 10:09:17.388879,-0.374,0.253,1.326,-56.878,-43.229,-2.708
2025-03-12 10:09:17.440128,-0.462,0.280,1.372,-51.606,-6.508,-4.479
2025-03-12 10:09:17.491797,-0.488,0.266,1.492,-50.706,25.849,-2.419
2025-03-12 10:09:17.544162,-0.435,0.191,1.496,-55.024,48.478,-6.813
2025-03-12 10:09:17.596795,-0.421,0.175,1.583,-68.933,53.346,-16.388
2025-03-12 10:09:17.649764,-0.487,0.172,1.724,-89.265,41.672,-29.740
2025-03-12 10:09:17.701912,-0.548,0.064,1.770,-104.334,47.745,-38.834
2025-03-12 10:09:17.753272,-0.615,-0.022,1.744,-96.574,65.927,-40.116
2025-03-12 10:09:17.804620,-0.921,-0.023,1.881,-68.101,68.948,-26.329
2025-03-12 10:09:17.857227,-0.746,-0.102,1.881,-27.176,72.442,-14.260
2025-03-12 10:09:17.910338,-0.601,-0.171,1.881,5.737,73.686,-9.407
2025-03-12 10:09:17.962432,-0.572,-0.186,1.881,35.424,64.378,-6.477
2025-03-12 10:09:18.015526,-0.532,-0.150,1.698,50.484,52.308,-5.234
2025-03-12 10:09:18.067337,-0.489,-0.138,1.551,66.705,33.890,-1.968
2025-03-12 10:09:18.119250,-0.448,-0.107,1.344,74.922,20.401,-0.664
2025-03-12 10:09:18.171653,-0.395,-0.095,1.134,74.655,10.948,-1.984
2025-03-12 10:09:18.223517,-0.406,-0.063,1.044,61.410,17.609,-2.594
2025-03-12 10:09:18.275842,-0.466,-0.073,0.975,47.166,34.203,1.526
2025-03-12 10:09:18.328078,-0.475,-0.110,0.902,50.889,35.866,11.032
2025-03-12 10:09:18.378829,-0.411,-0.101,0.803,57.908,33.394,18.311
2025-03-12 10:09:18.431239,-0.328,-0.093,0.662,62.348,31.151,19.989
2025-03-12 10:09:18.483731,-0.266,-0.081,0.555,59.335,22.751,19.364
2025-03-12 10:09:18.535547,-0.215,-0.030,0.524,42.451,26.307,16.884
2025-03-12 10:09:18.589306,-0.245,-0.041,0.452,32.601,38.972,12.657
2025-03-12 10:09:18.640872,-0.220,-0.061,0.406,43.771,30.129,16.068
2025-03-12 10:09:18.693194,-0.198,-0.055,0.364,63.508,19.432,20.294
2025-03-12 10:09:18.745252,-0.150,-0.050,0.249,84.451,13.420,23.270
2025-03-12 10:09:18.798068,-0.141,-0.037,0.088,101.404,6.729,25.086
2025-03-12 10:09:18.851196,-0.064,-0.010,-0.066,105.951,2.197,22.614
2025-03-12 10:09:18.902273,-0.095,0.025,-0.173,96.391,6.035,14.328
2025-03-12 10:09:18.954252,-0.125,0.078,-0.195,77.142,17.014,6.195
2025-03-12 10:09:19.006785,-0.180,0.094,-0.213,56.512,18.799,3.822
2025-03-12 10:09:19.059316,-0.163,0.090,-0.286,44.160,15.900,6.760
2025-03-12 10:09:19.111387,-0.117,0.080,-0.299,35.180,5.463,10.971
2025-03-12 10:09:19.164013,-0.066,0.084,-0.336,23.690,-1.953,11.040
2025-03-12 10:09:19.216354,-0.034,0.062,-0.285,7.927,0.099,4.005
2025-03-12 10:09:19.269324,-0.002,0.061,-0.258,-9.964,-5.798,-0.488
2025-03-12 10:09:19.321488,-0.011,0.020,-0.241,-24.765,-12.200,-3.647
2025-03-12 10:09:19.373817,-0.005,-0.015,-0.207,-37.453,-11.704,-8.064
2025-03-12 10:09:19.426305,-0.041,-0.039,-0.134,-46.090,-16.312,-8.438
2025-03-12 10:09:19.476878,-0.038,-0.036,-0.102,-50.813,-15.991,-9.155
2025-03-12 10:09:19.529405,-0.063,-0.015,-0.047,-54.932,-12.100,-10.185
2025-03-12 10:09:19.582127,-0.089,-0.003,0.052,-61.105,-6.668,-10.643
2025-03-12 10:09:19.634560,-0.083,-0.054,0.069,-61.547,-3.578,-9.079
2025-03-12 10:09:19.686033,-0.114,-0.068,0.113,-56.924,-7.729,-5.867
2025-03-12 10:09:19.738457,-0.164,-0.083,0.156,-51.629,-2.327,-9.102
2025-03-12 10:09:19.791021,-0.218,-0.057,0.255,-52.522,-0.557,-11.574
2025-03-12 10:09:19.842999,-0.255,-0.043,0.365,-58.686,-4.654,-9.453
2025-03-12 10:09:19.894182,-0.296,-0.084,0.468,-62.318,-26.322,-1.427
2025-03-12 10:09:19.945218,-0.306,-0.072,0.527,-58.366,-49.439,6.912
2025-03-12 10:09:19.996754,-0.329,-0.076,0.638,-49.012,-74.670,16.022
2025-03-12 10:09:20.047691,-0.334,0.014,0.732,-43.175,-81.422,20.119
2025-03-12 10:09:20.099943,-0.298,-0.012,0.794,-44.678,-69.551,21.843
2025-03-12 10:09:20.151973,-0.347,0.043,0.893,-47.852,-58.686,20.775
2025-03-12 10:09:20.203835,-0.380,0.094,1.047,-62.547,-45.708,8.934
2025-03-12 10:09:20.256357,-0.471,0.056,1.195,-84.710,-24.781,-11.421
2025-03-12 10:09:20.308300,-0.661,0.056,1.369,-100.053,-15.915,-18.601
2025-03-12 10:09:20.360343,-0.755,0.033,1.542,-112.093,-19.905,-18.425
2025-03-12 10:09:20.411193,-0.824,0.023,1.686,-125.948,-20.539,-16.678
2025-03-12 10:09:20.463328,-0.800,-0.056,1.873,-136.019,-8.293,-16.327
2025-03-12 10:09:20.515819,-0.856,-0.108,1.881,-131.487,5.226,-16.434
2025-03-12 10:09:20.567869,-0.835,-0.196,1.881,-111.185,18.105,-14.267
2025-03-12 10:09:20.619679,-0.837,-0.308,1.881,-75.685,31.228,-12.222
2025-03-12 10:09:20.672269,-0.901,-0.276,1.881,-23.095,27.993,1.526
2025-03-12 10:09:20.724380,-0.592,-0.342,1.881,16.228,35.248,0.633
2025-03-12 10:09:20.777231,-0.595,-0.298,1.763,47.822,13.428,1.907
2025-03-12 10:09:20.829852,-0.514,-0.297,1.484,56.985,0.885,2.029
2025-03-12 10:09:20.882350,-0.532,-0.242,1.287,53.948,-8.598,8.431
2025-03-12 10:09:20.934604,-0.506,-0.201,1.229,42.847,-15.816,16.617
2025-03-12 10:09:20.987490,-0.462,-0.249,1.160,48.508,-26.154,25.521
2025-03-12 10:09:21.038866,-0.337,-0.217,0.949,60.845,-25.521,27.367
2025-03-12 10:09:21.091318,-0.280,-0.199,0.799,69.772,-10.048,25.154
2025-03-12 10:09:21.144147,-0.246,-0.156,0.639,69.284,9.751,22.553
2025-03-12 10:09:21.196341,-0.219,-0.072,0.605,60.273,26.894,24.681
2025-03-12 10:09:21.248342,-0.217,-0.091,0.523,51.987,40.909,26.184
2025-03-12 10:09:21.300577,-0.169,-0.116,0.401,48.051,47.280,26.802
2025-03-12 10:09:21.352900,-0.198,-0.053,0.432,37.514,48.859,26.741
2025-03-12 10:09:21.405338,-0.232,-0.053,0.385,27.176,46.731,26.101
2025-03-12 10:09:21.455855,-0.248,0.014,0.404,21.271,37.888,25.795
2025-03-12 10:09:21.508756,-0.244,0.017,0.415,18.006,19.837,25.559
2025-03-12 10:09:21.560314,-0.179,0.023,0.453,14.694,9.361,22.164
2025-03-12 10:09:21.612186,-0.245,0.048,0.504,9.522,12.581,13.497
2025-03-12 10:09:21.664799,-0.275,-0.016,0.534,15.274,18.502,4.532
2025-03-12 10:09:21.715698,-0.380,0.019,0.601,22.416,14.908,1.175
2025-03-12 10:09:21.767809,-0.445,0.048,0.629,23.354,8.576,6.149
2025-03-12 10:09:21.820605,-0.450,0.029,0.649,18.387,12.596,17.624
2025-03-12 10:09:21.872304,-0.379,0.025,0.685,12.100,19.043,24.201
2025-03-12 10:09:21.923400,-0.332,-0.004,0.732,7.050,34.791,21.592
2025-03-12 10:09:21.976334,-0.342,-0.017,0.803,3.319,52.804,15.640
2025-03-12 10:09:22.028157,-0.380,-0.043,0.871,3.960,63.104,12.963
2025-03-12 10:09:22.081460,-0.389,-0.022,0.939,6.943,58.640,15.175
2025-03-12 10:09:22.132740,-0.378,-0.037,0.986,10.315,47.883,14.527
2025-03-12 10:09:22.184788,-0.374,-0.043,0.975,16.014,35.721,12.177
2025-03-12 10:09:22.237129,-0.361,-0.063,0.922,27.192,27.451,13.039
2025-03-12 10:09:22.289766,-0.368,-0.015,0.865,37.034,24.636,13.802
2025-03-12 10:09:22.342525,-0.384,-0.000,0.813,38.560,27.329,15.343
2025-03-12 10:09:22.393749,-0.405,0.006,0.794,33.013,37.278,16.350
2025-03-12 10:09:22.445236,-0.429,0.011,0.748,26.162,40.276,17.769
2025-03-12 10:09:22.497965,-0.458,0.058,0.724,23.194,41.886,20.310
2025-03-12 10:09:22.549883,-0.478,0.051,0.679,22.232,40.024,23.575
2025-03-12 10:09:22.602863,-0.455,0.068,0.642,22.011,38.369,28.305
2025-03-12 10:09:22.654772,-0.410,0.017,0.567,22.110,37.491,28.801
2025-03-12 10:09:22.708130,-0.386,-0.007,0.495,19.638,39.940,25.399
2025-03-12 10:09:22.759227,-0.311,0.002,0.386,12.543,40.276,21.767
2025-03-12 10:09:22.810325,-0.281,-0.036,0.303,3.014,31.205,15.709
2025-03-12 10:09:22.862351,-0.211,0.018,0.136,-10.887,8.408,4.288
2025-03-12 10:09:22.913839,-0.164,0.019,-0.038,-33.326,-13.840,-12.032
2025-03-12 10:09:22.966756,-0.124,0.003,-0.344,-59.953,-37.484,-36.652
2025-03-12 10:09:23.018929,-0.081,-0.050,-0.487,-95.712,-47.539,-64.111
2025-03-12 10:09:23.072246,-0.004,-0.045,-0.384,-148.394,-67.208,-83.925
2025-03-12 10:09:23.124557,-0.059,0.009,-0.304,-223.041,-89.189,-87.053
2025-03-12 10:09:23.177407,-0.151,0.080,-0.224,-247.944,-95.666,-85.962
2025-03-12 10:09:23.230499,-0.339,-0.064,-0.326,-247.944,-165.957,-103.586
2025-03-12 10:09:23.281417,-0.124,0.287,-0.288,-247.944,-181.865,-109.743
2025-03-12 10:09:23.334611,-0.150,0.299,-0.310,-247.944,-201.053,-107.607
2025-03-12 10:09:23.388394,-0.141,0.310,-0.330,-247.944,-219.913,-99.260
2025-03-12 10:09:23.440280,-0.131,0.294,-0.362,-247.944,-232.517,-87.587
2025-03-12 10:09:23.493575,-0.141,0.259,-0.367,-247.944,-241.497,-75.502
2025-03-12 10:09:23.546252,-0.145,0.235,-0.370,-247.944,-252.682,-62.448
2025-03-12 10:09:23.597305,-0.143,0.198,-0.388,-247.944,-252.682,-48.356
2025-03-12 10:09:23.650025,-0.149,0.169,-0.391,-247.944,-252.682,-34.531
2025-03-12 10:09:23.701997,-0.147,0.138,-0.397,-247.944,-252.682,-20.920
2025-03-12 10:09:23.754115,-0.155,0.102,-0.391,-247.944,-252.682,-7.813
2025-03-12 10:09:23.805879,-0.160,0.073,-0.394,-247.944,-252.682,4.662
2025-03-12 10:09:23.858677,-0.154,0.057,-0.398,-227.054,-252.682,16.747
2025-03-12 10:09:23.910994,-0.164,0.040,-0.393,-196.254,-252.682,27.749
2025-03-12 10:09:23.962784,-0.170,0.021,-0.402,-167.185,-252.682,37.568
2025-03-12 10:09:24.015346,-0.170,0.007,-0.396,-140.841,-252.682,45.609
2025-03-12 10:09:24.067326,-0.173,0.002,-0.382,-117.731,-252.682,51.766
2025-03-12 10:09:24.120354,-0.166,-0.009,-0.394,-97.833,-252.682,56.283
2025-03-12 10:09:24.172357,-0.162,-0.014,-0.401,-78.729,-252.682,59.304
2025-03-12 10:09:24.224412,-0.198,-0.012,-0.352,-60.098,-252.682,59.770
2025-03-12 10:09:24.277366,-0.110,-0.168,-0.420,-53.239,-252.682,52.369
2025-03-12 10:09:24.329361,-0.158,-0.063,-0.379,-32.311,-252.682,82.963
2025-03-12 10:09:24.381859,-0.127,-0.117,-0.439,-8.904,-252.682,96.735
2025-03-12 10:09:24.434410,-0.151,-0.276,-0.415,63.485,-252.682,122.721
2025-03-12 10:09:24.486114,0.459,-2.005,-1.038,112.444,-163.394,-248.966
2025-03-12 10:09:24.538303,0.802,-2.005,0.125,28.260,53.834,-97.848
2025-03-12 10:09:24.590808,1.193,-2.005,-0.972,-9.812,121.805,-71.809
2025-03-12 10:09:24.642335,0.304,-1.680,-0.477,-49.500,247.318,-42.603
2025-03-12 10:09:24.693530,0.034,-1.514,0.146,-54.078,177.646,-72.297
2025-03-12 10:09:24.745809,0.244,-1.357,-0.207,-85.771,-24.971,-139.139
2025-03-12 10:09:24.796349,0.647,-1.930,-0.392,-102.106,-105.867,-167.613
2025-03-12 10:09:24.849065,0.761,-2.005,-0.814,-101.068,-115.160,-134.272
2025-03-12 10:09:24.900577,0.116,-2.005,-0.661,-31.861,-142.107,-53.017
2025-03-12 10:09:24.951735,0.334,-1.778,-1.523,63.180,-74.769,-17.350
2025-03-12 10:09:25.003951,-0.002,-1.362,-0.836,132.753,-63.416,-5.318
2025-03-12 10:09:25.055958,-0.128,-1.338,-0.689,170.542,-132.685,-64.782
2025-03-12 10:09:25.108405,-0.104,-1.352,-0.634,197.330,-134.562,-133.082
2025-03-12 10:09:25.161053,0.105,-1.402,-0.690,211.025,-97.108,-192.683
2025-03-12 10:09:25.213509,0.370,-1.211,-0.742,233.814,-36.530,-215.198
2025-03-12 10:09:25.265692,0.675,-1.214,-0.937,228.138,122.835,-201.511
2025-03-12 10:09:25.317716,0.659,-0.990,-0.637,241.947,247.318,-191.722
2025-03-12 10:09:25.368548,0.431,-0.692,-0.192,252.056,234.691,-188.106
2025-03-12 10:09:25.420449,0.273,-0.532,0.031,252.056,177.623,-178.706
2025-03-12 10:09:25.472009,0.263,-0.393,0.118,252.056,29.595,-160.723
2025-03-12 10:09:25.525466,0.341,-0.303,0.040,252.056,-105.272,-141.291
2025-03-12 10:09:25.577672,0.534,-0.080,-0.197,252.056,-121.118,-167.643
2025-03-12 10:09:25.629541,0.588,0.312,-0.257,252.056,-50.690,-185.466
2025-03-12 10:09:25.682952,0.771,0.313,-0.177,252.056,93.843,-180.354
2025-03-12 10:09:25.734994,1.643,0.190,1.623,252.056,247.318,-136.652
2025-03-12 10:09:25.787347,0.577,0.812,1.881,247.860,29.618,-29.084
2025-03-12 10:09:25.839980,1.207,0.317,1.059,1.640,-95.605,1.778
2025-03-12 10:09:25.892191,0.941,0.215,0.783,-58.648,42.924,58.984
2025-03-12 10:09:25.945332,0.814,-0.115,0.744,-70.062,7.073,91.341
2025-03-12 10:09:25.997492,0.487,-0.473,0.515,-59.083,-2.296,86.992
2025-03-12 10:09:26.050527,0.190,-0.682,0.424,-27.123,-4.074,51.202
2025-03-12 10:09:26.101448,0.284,-0.700,0.209,24.025,-12.123,1.671
2025-03-12 10:09:26.154601,0.330,-0.624,0.140,73.884,-12.253,-40.803
2025-03-12 10:09:26.206597,0.410,-0.500,0.251,108.064,4.250,-73.716
2025-03-12 10:09:26.258857,0.631,-0.363,0.500,123.445,17.967,-89.288
2025-03-12 10:09:26.311414,0.763,-0.199,0.688,120.096,32.876,-83.627
2025-03-12 10:09:26.363703,0.898,-0.107,0.746,96.582,11.574,-66.125
2025-03-12 10:09:26.414341,0.938,-0.062,0.781,62.364,-7.691,-38.254
2025-03-12 10:09:26.468535,0.770,-0.048,0.779,27.787,-30.121,-14.595
2025-03-12 10:09:26.520759,0.489,-0.184,0.635,3.098,-57.305,-19.272
2025-03-12 10:09:26.573440,0.360,-0.211,0.461,-6.584,-77.607,-55.940
2025-03-12 10:09:26.625276,0.484,-0.159,0.275,-2.457,-80.865,-95.613
2025-03-12 10:09:26.676332,0.592,-0.031,0.090,5.974,-42.870,-119.409
2025-03-12 10:09:26.728394,0.585,0.029,0.118,9.583,-1.732,-132.219
